{
    "datasetJSONCreationDateTime": "2025-01-16T13:50:23",
    "datasetJSONVersion": "1.1.0",
    "fileOID": "XYZ_SDTM_ADDS",
    "dbLastModifiedDateTime": "2025-01-16T13:50:23",
    "originator": "EDA Clinical",
    "sourceSystem": {
        "name": "Python",
        "version": "3.8.0"
    },
    "studyOID": "SilentNight",
    "metaDataVersionOID": "1.0",
    "metaDataRef": "define.xml",
    "itemGroupOID": "IG.ADDS",
    "records": 10,
    "name": "ADDS",
    "label": "Analysis Dataset of Disposition",
    "columns": [
        {
            "itemOID": "IT.ADDS.STUDYID",
            "name": "STUDYID",
            "label": "Study Identifier",
            "dataType": "string",
            "length": 3,
            "keySequence": 1
        },
        {
            "itemOID": "IT.ADDS.DOMAIN",
            "name": "DOMAIN",
            "label": "Domain",
            "dataType": "string",
            "length": 4,
            "keySequence": 2
        },
        {
            "itemOID": "IT.ADDS.SITEID",
            "name": "SITEID",
            "label": "Site Identifier",
            "dataType": "integer",
            "length": 3,
            "keySequence": 3
        },
        {
            "itemOID": "IT.ADDS.SUBJID",
            "name": "SUBJID",
            "label": "Subject Identifier",
            "dataType": "integer",
            "length": 4,
            "keySequence": 4
        },
        {
            "itemOID": "IT.ADDS.USUBJID",
            "name": "USUBJID",
            "label": "Unique Subject Identifier",
            "dataType": "string",
            "length": 10,
            "keySequence": 5
        },
        {
            "itemOID": "IT.ADDS.DSSEQ",
            "name": "DSSEQ",
            "label": "Sequence Number",
            "dataType": "integer",
            "length": 2,
            "keySequence": 6
        },
        {
            "itemOID": "IT.ADDS.DSTERM",
            "name": "DSTERM",
            "label": "Disposition Term",
            "dataType": "string",
            "length": 17,
            "keySequence": 7
        },
        {
            "itemOID": "IT.ADDS.DSDECOD",
            "name": "DSDECOD",
            "label": "Standardized Disposition Term",
            "dataType": "string",
            "length": 17,
            "keySequence": 8
        },
        {
            "itemOID": "IT.ADDS.DSCAT",
            "name": "DSCAT",
            "label": "Disposition Category",
            "dataType": "string",
            "length": 17,
            "keySequence": 9
        },
        {
            "itemOID": "IT.ADDS.DSSTDTC",
            "name": "DSSTDTC",
            "label": "Start Date/Time of Disposition Event",
            "dataType": "string",
            "length": 10,
            "keySequence": 10
        },
        {
            "itemOID": "IT.ADDS.DSSTDT",
            "name": "DSSTDT",
            "label": "Start Date/Time of Disposition Event",
            "dataType": "string",
            "length": 10,
            "keySequence": 11
        },
        {
            "itemOID": "IT.ADDS.DSSTDY",
            "name": "DSSTDY",
            "label": "Study Day of Start of Disposition Event",
            "dataType": "integer",
            "length": 3,
            "keySequence": 12
        },
        {
            "itemOID": "IT.ADDS.DSDTC",
            "name": "DSDTC",
            "label": "Date/Time of Collection",
            "dataType": "string",
            "length": 10,
            "keySequence": 13
        },
        {
            "itemOID": "IT.ADDS.DSDT",
            "name": "DSDT",
            "label": "Date/Time of Collection",
            "dataType": "string",
            "length": 10,
            "keySequence": 14
        },
        {
            "itemOID": "IT.ADDS.EPOCH",
            "name": "EPOCH",
            "label": "Epoch",
            "dataType": "string",
            "length": 22,
            "keySequence": 15
        }
    ],
    "rows": [
        [
            "XYZ",
            "ADDS",
            null,
            null,
            "XYZ-001-22",
            1,
            "SCREEN FAILURE",
            "SCREEN FAILURE",
            "Disposition Event",
            "01/02/2019",
            "01/02/2019",
            null,
            "01/02/2019",
            "01/02/2019",
            "OPEN LABEL TREATMENT 2"
        ],
        [
            "XYZ",
            "ADDS",
            null,
            null,
            "XYZ-001-33",
            2,
            "SCREEN FAILURE",
            "SCREEN FAILURE",
            "Disposition Event",
            "01/06/2019",
            "01/06/2019",
            null,
            "01/06/2019",
            "01/06/2019",
            "OPEN LABEL TREATMENT 2"
        ],
        [
            "XYZ",
            "ADDS",
            null,
            null,
            "XYZ-001-37",
            3,
            "SCREEN FAILURE",
            "SCREEN FAILURE",
            "Disposition Event",
            "01/04/2019",
            "01/04/2019",
            null,
            "01/04/2019",
            "01/04/2019",
            "OPEN LABEL TREATMENT 2"
        ],
        [
            "XYZ",
            "ADDS",
            1.0,
            26.0,
            "XYZ-001-26",
            4,
            "ADVERSE EVENT",
            "ADVERSE EVENT",
            "Disposition Event",
            "01/24/2019",
            "01/24/2019",
            null,
            "01/24/2019",
            "01/24/2019",
            "OPEN LABEL TREATMENT 2"
        ],
        [
            "XYZ",
            "ADDS",
            1.0,
            14.0,
            "XYZ-001-14",
            5,
            "ADVERSE EVENT",
            "ADVERSE EVENT",
            "Disposition Event",
            "01/28/2019",
            "01/28/2019",
            null,
            "01/28/2019",
            "01/28/2019",
            "OPEN LABEL TREATMENT 2"
        ],
        [
            "XYZ",
            "ADDS",
            1.0,
            7.0,
            "XYZ-001-7",
            6,
            "OTHER",
            "OTHER",
            "Disposition Event",
            "01/16/2019",
            "01/16/2019",
            null,
            "01/16/2019",
            "01/16/2019",
            "OPEN LABEL TREATMENT 2"
        ],
        [
            "XYZ",
            "ADDS",
            1.0,
            31.0,
            "XYZ-001-31",
            7,
            "OTHER",
            "OTHER",
            "Disposition Event",
            "01/14/2019",
            "01/14/2019",
            null,
            "01/14/2019",
            "01/14/2019",
            "OPEN LABEL TREATMENT 2"
        ],
        [
            "XYZ",
            "ADDS",
            1.0,
            13.0,
            "XYZ-001-13",
            8,
            "LOST TO FOLLOW-UP",
            "LOST TO FOLLOW-UP",
            "Disposition Event",
            "01/12/2019",
            "01/12/2019",
            null,
            "01/12/2019",
            "01/12/2019",
            "OPEN LABEL TREATMENT 2"
        ],
        [
            "XYZ",
            "ADDS",
            1.0,
            20.0,
            "XYZ-001-20",
            9,
            "LOST TO FOLLOW-UP",
            "LOST TO FOLLOW-UP",
            "Disposition Event",
            "01/19/2019",
            "01/19/2019",
            null,
            "01/19/2019",
            "01/19/2019",
            "OPEN LABEL TREATMENT 2"
        ],
        [
            "XYZ",
            "ADDS",
            1.0,
            23.0,
            "XYZ-001-23",
            10,
            "LOST TO FOLLOW-UP",
            "LOST TO FOLLOW-UP",
            "Disposition Event",
            "01/19/2019",
            "01/19/2019",
            null,
            "01/19/2019",
            "01/19/2019",
            "OPEN LABEL TREATMENT 2"
        ]
    ]
}