{
    "datasetJSONCreationDateTime": "2025-01-16T13:51:10",
    "datasetJSONVersion": "1.1.0",
    "fileOID": "XYZ_SDTM_ADVS",
    "dbLastModifiedDateTime": "2025-01-16T13:51:10",
    "originator": "EDA Clinical",
    "sourceSystem": {
        "name": "Python",
        "version": "3.8.0"
    },
    "studyOID": "SilentNight",
    "metaDataVersionOID": "1.0",
    "metaDataRef": "define.xml",
    "itemGroupOID": "IG.ADVS",
    "records": 108,
    "name": "ADVS",
    "label": "Analysis Dataset of Vital Signs",
    "columns": [
        {
            "itemOID": "IT.ADVS.STUDYID",
            "name": "STUDYID",
            "label": "Study Identifier",
            "dataType": "string",
            "length": 3,
            "keySequence": 1
        },
        {
            "itemOID": "IT.ADVS.DOMAIN",
            "name": "DOMAIN",
            "label": "Domain",
            "dataType": "string",
            "length": 4,
            "keySequence": 2
        },
        {
            "itemOID": "IT.ADVS.USUBJID",
            "name": "USUBJID",
            "label": "Unique Subject Identifier",
            "dataType": "string",
            "length": 10,
            "keySequence": 3
        },
        {
            "itemOID": "IT.ADVS.SUBJID",
            "name": "SUBJID",
            "label": "Subject Identifier for the Study",
            "dataType": "integer",
            "length": 2,
            "keySequence": 4
        },
        {
            "itemOID": "IT.ADVS.VSSEQ",
            "name": "VSSEQ",
            "label": "Questionnaire ",
            "dataType": "integer",
            "length": 2,
            "keySequence": 5
        },
        {
            "itemOID": "IT.ADVS.PARAM",
            "name": "PARAM",
            "label": "Parameter",
            "dataType": "string",
            "length": 18,
            "keySequence": 6
        },
        {
            "itemOID": "IT.ADVS.PARAMCD",
            "name": "PARAMCD",
            "label": "Parameter Code",
            "dataType": "string",
            "length": 7,
            "keySequence": 7
        },
        {
            "itemOID": "IT.ADVS.AVAL",
            "name": "AVAL",
            "label": "Analysis Value",
            "dataType": "integer",
            "length": 5,
            "keySequence": 8
        },
        {
            "itemOID": "IT.ADVS.AVALC",
            "name": "AVALC",
            "label": "Analysis Value Character",
            "dataType": "integer",
            "length": 3,
            "keySequence": 9
        },
        {
            "itemOID": "IT.ADVS.DTYPE",
            "name": "DTYPE",
            "label": "Derivation Type",
            "dataType": "string",
            "length": 4,
            "keySequence": 10
        },
        {
            "itemOID": "IT.ADVS.VISIT",
            "name": "VISIT",
            "label": "Visit",
            "dataType": "integer",
            "length": 3,
            "keySequence": 11
        },
        {
            "itemOID": "IT.ADVS.VISITNUM",
            "name": "VISITNUM",
            "label": "Visit Number",
            "dataType": "integer",
            "length": 3,
            "keySequence": 12
        },
        {
            "itemOID": "IT.ADVS.AVISIT",
            "name": "AVISIT",
            "label": "Actual Visit",
            "dataType": "string",
            "length": 4,
            "keySequence": 13
        },
        {
            "itemOID": "IT.ADVS.AVISITN",
            "name": "AVISITN",
            "label": "Actual Visit Number",
            "dataType": "string",
            "length": 4,
            "keySequence": 14
        },
        {
            "itemOID": "IT.ADVS.TRTC",
            "name": "TRTC",
            "label": "Current Treatment",
            "dataType": "string",
            "length": 4,
            "keySequence": 15
        },
        {
            "itemOID": "IT.ADVS.ANL01FL",
            "name": "ANL01FL",
            "label": "Analysis Flag 1",
            "dataType": "string",
            "length": 4,
            "keySequence": 16
        },
        {
            "itemOID": "IT.ADVS.FASFL",
            "name": "FASFL",
            "label": "Full Analysis Set",
            "dataType": "string",
            "length": 1,
            "keySequence": 17
        },
        {
            "itemOID": "IT.ADVS.SAFFL",
            "name": "SAFFL",
            "label": "Safety",
            "dataType": "string",
            "length": 1,
            "keySequence": 18
        },
        {
            "itemOID": "IT.ADVS.ITTFL",
            "name": "ITTFL",
            "label": "Intent-to-Treat",
            "dataType": "string",
            "length": 1,
            "keySequence": 19
        },
        {
            "itemOID": "IT.ADVS.COMPLFL",
            "name": "COMPLFL",
            "label": "Completed the Study",
            "dataType": "string",
            "length": 1,
            "keySequence": 20
        },
        {
            "itemOID": "IT.ADVS.ENRLFL",
            "name": "ENRLFL",
            "label": "Enrolled in the Study",
            "dataType": "string",
            "length": 1,
            "keySequence": 21
        }
    ],
    "rows": [
        [
            "XYZ",
            "ADVS",
            "XYZ-001-26",
            26,
            18,
            "Height",
            "HEIGHT",
            190.0,
            190,
            null,
            null,
            null,
            null,
            null,
            null,
            null,
            "Y",
            "Y",
            "Y",
            "Y",
            "Y"
        ],
        [
            "XYZ",
            "ADVS",
            "XYZ-001-26",
            26,
            18,
            "Weight",
            "WEIGHT",
            130.0,
            130,
            null,
            null,
            null,
            null,
            null,
            null,
            null,
            "Y",
            "Y",
            "Y",
            "Y",
            "Y"
        ],
        [
            "XYZ",
            "ADVS",
            "XYZ-001-26",
            26,
            18,
            "Neck Circumference",
            "NECKCIR",
            41.0,
            41,
            null,
            null,
            null,
            null,
            null,
            null,
            null,
            "Y",
            "Y",
            "Y",
            "Y",
            "Y"
        ],
        [
            "XYZ",
            "ADVS",
            "XYZ-001-26",
            26,
            18,
            "Body Mass Index",
            "BMI",
            36.0,
            36,
            null,
            null,
            null,
            null,
            null,
            null,
            null,
            "Y",
            "Y",
            "Y",
            "Y",
            "Y"
        ],
        [
            "XYZ",
            "ADVS",
            "XYZ-001-17",
            17,
            12,
            "Height",
            "HEIGHT",
            154.0,
            154,
            null,
            null,
            null,
            null,
            null,
            null,
            null,
            "Y",
            "Y",
            "Y",
            "Y",
            "Y"
        ],
        [
            "XYZ",
            "ADVS",
            "XYZ-001-17",
            17,
            12,
            "Weight",
            "WEIGHT",
            104.0,
            104,
            null,
            null,
            null,
            null,
            null,
            null,
            null,
            "Y",
            "Y",
            "Y",
            "Y",
            "Y"
        ],
        [
            "XYZ",
            "ADVS",
            "XYZ-001-17",
            17,
            12,
            "Neck Circumference",
            "NECKCIR",
            43.0,
            43,
            null,
            null,
            null,
            null,
            null,
            null,
            null,
            "Y",
            "Y",
            "Y",
            "Y",
            "Y"
        ],
        [
            "XYZ",
            "ADVS",
            "XYZ-001-17",
            17,
            12,
            "Body Mass Index",
            "BMI",
            43.9,
            43,
            null,
            null,
            null,
            null,
            null,
            null,
            null,
            "Y",
            "Y",
            "Y",
            "Y",
            "Y"
        ],
        [
            "XYZ",
            "ADVS",
            "XYZ-001-14",
            14,
            9,
            "Height",
            "HEIGHT",
            162.0,
            162,
            null,
            null,
            null,
            null,
            null,
            null,
            null,
            "Y",
            "Y",
            "Y",
            "Y",
            "Y"
        ],
        [
            "XYZ",
            "ADVS",
            "XYZ-001-14",
            14,
            9,
            "Weight",
            "WEIGHT",
            101.0,
            101,
            null,
            null,
            null,
            null,
            null,
            null,
            null,
            "Y",
            "Y",
            "Y",
            "Y",
            "Y"
        ],
        [
            "XYZ",
            "ADVS",
            "XYZ-001-14",
            14,
            9,
            "Neck Circumference",
            "NECKCIR",
            44.0,
            44,
            null,
            null,
            null,
            null,
            null,
            null,
            null,
            "Y",
            "Y",
            "Y",
            "Y",
            "Y"
        ],
        [
            "XYZ",
            "ADVS",
            "XYZ-001-14",
            14,
            9,
            "Body Mass Index",
            "BMI",
            38.5,
            38,
            null,
            null,
            null,
            null,
            null,
            null,
            null,
            "Y",
            "Y",
            "Y",
            "Y",
            "Y"
        ],
        [
            "XYZ",
            "ADVS",
            "XYZ-001-27",
            27,
            19,
            "Height",
            "HEIGHT",
            195.0,
            195,
            null,
            null,
            null,
            null,
            null,
            null,
            null,
            "Y",
            "Y",
            "Y",
            "Y",
            "Y"
        ],
        [
            "XYZ",
            "ADVS",
            "XYZ-001-27",
            27,
            19,
            "Weight",
            "WEIGHT",
            142.0,
            142,
            null,
            null,
            null,
            null,
            null,
            null,
            null,
            "Y",
            "Y",
            "Y",
            "Y",
            "Y"
        ],
        [
            "XYZ",
            "ADVS",
            "XYZ-001-27",
            27,
            19,
            "Neck Circumference",
            "NECKCIR",
            42.0,
            42,
            null,
            null,
            null,
            null,
            null,
            null,
            null,
            "Y",
            "Y",
            "Y",
            "Y",
            "Y"
        ],
        [
            "XYZ",
            "ADVS",
            "XYZ-001-27",
            27,
            19,
            "Body Mass Index",
            "BMI",
            37.3,
            37,
            null,
            null,
            null,
            null,
            null,
            null,
            null,
            "Y",
            "Y",
            "Y",
            "Y",
            "Y"
        ],
        [
            "XYZ",
            "ADVS",
            "XYZ-001-13",
            13,
            8,
            "Height",
            "HEIGHT",
            165.0,
            165,
            null,
            null,
            null,
            null,
            null,
            null,
            null,
            "Y",
            "Y",
            "Y",
            "Y",
            "Y"
        ],
        [
            "XYZ",
            "ADVS",
            "XYZ-001-13",
            13,
            8,
            "Weight",
            "WEIGHT",
            118.0,
            118,
            null,
            null,
            null,
            null,
            null,
            null,
            null,
            "Y",
            "Y",
            "Y",
            "Y",
            "Y"
        ],
        [
            "XYZ",
            "ADVS",
            "XYZ-001-13",
            13,
            8,
            "Neck Circumference",
            "NECKCIR",
            45.0,
            45,
            null,
            null,
            null,
            null,
            null,
            null,
            null,
            "Y",
            "Y",
            "Y",
            "Y",
            "Y"
        ],
        [
            "XYZ",
            "ADVS",
            "XYZ-001-13",
            13,
            8,
            "Body Mass Index",
            "BMI",
            43.3,
            43,
            null,
            null,
            null,
            null,
            null,
            null,
            null,
            "Y",
            "Y",
            "Y",
            "Y",
            "Y"
        ],
        [
            "XYZ",
            "ADVS",
            "XYZ-001-12",
            12,
            7,
            "Height",
            "HEIGHT",
            164.0,
            164,
            null,
            null,
            null,
            null,
            null,
            null,
            null,
            "Y",
            "Y",
            "Y",
            "Y",
            "Y"
        ],
        [
            "XYZ",
            "ADVS",
            "XYZ-001-12",
            12,
            7,
            "Weight",
            "WEIGHT",
            119.0,
            119,
            null,
            null,
            null,
            null,
            null,
            null,
            null,
            "Y",
            "Y",
            "Y",
            "Y",
            "Y"
        ],
        [
            "XYZ",
            "ADVS",
            "XYZ-001-12",
            12,
            7,
            "Neck Circumference",
            "NECKCIR",
            43.0,
            43,
            null,
            null,
            null,
            null,
            null,
            null,
            null,
            "Y",
            "Y",
            "Y",
            "Y",
            "Y"
        ],
        [
            "XYZ",
            "ADVS",
            "XYZ-001-12",
            12,
            7,
            "Body Mass Index",
            "BMI",
            44.2,
            44,
            null,
            null,
            null,
            null,
            null,
            null,
            null,
            "Y",
            "Y",
            "Y",
            "Y",
            "Y"
        ],
        [
            "XYZ",
            "ADVS",
            "XYZ-001-7",
            7,
            5,
            "Height",
            "HEIGHT",
            152.0,
            152,
            null,
            null,
            null,
            null,
            null,
            null,
            null,
            "Y",
            "Y",
            "Y",
            "Y",
            "Y"
        ],
        [
            "XYZ",
            "ADVS",
            "XYZ-001-7",
            7,
            5,
            "Weight",
            "WEIGHT",
            98.0,
            98,
            null,
            null,
            null,
            null,
            null,
            null,
            null,
            "Y",
            "Y",
            "Y",
            "Y",
            "Y"
        ],
        [
            "XYZ",
            "ADVS",
            "XYZ-001-7",
            7,
            5,
            "Neck Circumference",
            "NECKCIR",
            45.0,
            45,
            null,
            null,
            null,
            null,
            null,
            null,
            null,
            "Y",
            "Y",
            "Y",
            "Y",
            "Y"
        ],
        [
            "XYZ",
            "ADVS",
            "XYZ-001-7",
            7,
            5,
            "Body Mass Index",
            "BMI",
            42.4,
            42,
            null,
            null,
            null,
            null,
            null,
            null,
            null,
            "Y",
            "Y",
            "Y",
            "Y",
            "Y"
        ],
        [
            "XYZ",
            "ADVS",
            "XYZ-001-29",
            29,
            21,
            "Height",
            "HEIGHT",
            187.0,
            187,
            null,
            null,
            null,
            null,
            null,
            null,
            null,
            "Y",
            "Y",
            "Y",
            "Y",
            "Y"
        ],
        [
            "XYZ",
            "ADVS",
            "XYZ-001-29",
            29,
            21,
            "Weight",
            "WEIGHT",
            139.0,
            139,
            null,
            null,
            null,
            null,
            null,
            null,
            null,
            "Y",
            "Y",
            "Y",
            "Y",
            "Y"
        ],
        [
            "XYZ",
            "ADVS",
            "XYZ-001-29",
            29,
            21,
            "Neck Circumference",
            "NECKCIR",
            44.0,
            44,
            null,
            null,
            null,
            null,
            null,
            null,
            null,
            "Y",
            "Y",
            "Y",
            "Y",
            "Y"
        ],
        [
            "XYZ",
            "ADVS",
            "XYZ-001-29",
            29,
            21,
            "Body Mass Index",
            "BMI",
            39.7,
            39,
            null,
            null,
            null,
            null,
            null,
            null,
            null,
            "Y",
            "Y",
            "Y",
            "Y",
            "Y"
        ],
        [
            "XYZ",
            "ADVS",
            "XYZ-001-15",
            15,
            10,
            "Height",
            "HEIGHT",
            180.0,
            180,
            null,
            null,
            null,
            null,
            null,
            null,
            null,
            "Y",
            "Y",
            "Y",
            "Y",
            "Y"
        ],
        [
            "XYZ",
            "ADVS",
            "XYZ-001-15",
            15,
            10,
            "Weight",
            "WEIGHT",
            128.0,
            128,
            null,
            null,
            null,
            null,
            null,
            null,
            null,
            "Y",
            "Y",
            "Y",
            "Y",
            "Y"
        ],
        [
            "XYZ",
            "ADVS",
            "XYZ-001-15",
            15,
            10,
            "Neck Circumference",
            "NECKCIR",
            43.0,
            43,
            null,
            null,
            null,
            null,
            null,
            null,
            null,
            "Y",
            "Y",
            "Y",
            "Y",
            "Y"
        ],
        [
            "XYZ",
            "ADVS",
            "XYZ-001-15",
            15,
            10,
            "Body Mass Index",
            "BMI",
            39.5,
            39,
            null,
            null,
            null,
            null,
            null,
            null,
            null,
            "Y",
            "Y",
            "Y",
            "Y",
            "Y"
        ],
        [
            "XYZ",
            "ADVS",
            "XYZ-001-6",
            6,
            4,
            "Height",
            "HEIGHT",
            188.0,
            188,
            null,
            null,
            null,
            null,
            null,
            null,
            null,
            "Y",
            "Y",
            "Y",
            "Y",
            "Y"
        ],
        [
            "XYZ",
            "ADVS",
            "XYZ-001-6",
            6,
            4,
            "Weight",
            "WEIGHT",
            127.0,
            127,
            null,
            null,
            null,
            null,
            null,
            null,
            null,
            "Y",
            "Y",
            "Y",
            "Y",
            "Y"
        ],
        [
            "XYZ",
            "ADVS",
            "XYZ-001-6",
            6,
            4,
            "Neck Circumference",
            "NECKCIR",
            43.0,
            43,
            null,
            null,
            null,
            null,
            null,
            null,
            null,
            "Y",
            "Y",
            "Y",
            "Y",
            "Y"
        ],
        [
            "XYZ",
            "ADVS",
            "XYZ-001-6",
            6,
            4,
            "Body Mass Index",
            "BMI",
            35.9,
            35,
            null,
            null,
            null,
            null,
            null,
            null,
            null,
            "Y",
            "Y",
            "Y",
            "Y",
            "Y"
        ],
        [
            "XYZ",
            "ADVS",
            "XYZ-001-31",
            31,
            22,
            "Height",
            "HEIGHT",
            177.0,
            177,
            null,
            null,
            null,
            null,
            null,
            null,
            null,
            "Y",
            "Y",
            "Y",
            "Y",
            "Y"
        ],
        [
            "XYZ",
            "ADVS",
            "XYZ-001-31",
            31,
            22,
            "Weight",
            "WEIGHT",
            134.0,
            134,
            null,
            null,
            null,
            null,
            null,
            null,
            null,
            "Y",
            "Y",
            "Y",
            "Y",
            "Y"
        ],
        [
            "XYZ",
            "ADVS",
            "XYZ-001-31",
            31,
            22,
            "Neck Circumference",
            "NECKCIR",
            43.0,
            43,
            null,
            null,
            null,
            null,
            null,
            null,
            null,
            "Y",
            "Y",
            "Y",
            "Y",
            "Y"
        ],
        [
            "XYZ",
            "ADVS",
            "XYZ-001-31",
            31,
            22,
            "Body Mass Index",
            "BMI",
            42.8,
            42,
            null,
            null,
            null,
            null,
            null,
            null,
            null,
            "Y",
            "Y",
            "Y",
            "Y",
            "Y"
        ],
        [
            "XYZ",
            "ADVS",
            "XYZ-001-8",
            8,
            6,
            "Height",
            "HEIGHT",
            187.0,
            187,
            null,
            null,
            null,
            null,
            null,
            null,
            null,
            "Y",
            "Y",
            "Y",
            "Y",
            "Y"
        ],
        [
            "XYZ",
            "ADVS",
            "XYZ-001-8",
            8,
            6,
            "Weight",
            "WEIGHT",
            139.0,
            139,
            null,
            null,
            null,
            null,
            null,
            null,
            null,
            "Y",
            "Y",
            "Y",
            "Y",
            "Y"
        ],
        [
            "XYZ",
            "ADVS",
            "XYZ-001-8",
            8,
            6,
            "Neck Circumference",
            "NECKCIR",
            43.0,
            43,
            null,
            null,
            null,
            null,
            null,
            null,
            null,
            "Y",
            "Y",
            "Y",
            "Y",
            "Y"
        ],
        [
            "XYZ",
            "ADVS",
            "XYZ-001-8",
            8,
            6,
            "Body Mass Index",
            "BMI",
            39.7,
            39,
            null,
            null,
            null,
            null,
            null,
            null,
            null,
            "Y",
            "Y",
            "Y",
            "Y",
            "Y"
        ],
        [
            "XYZ",
            "ADVS",
            "XYZ-001-38",
            38,
            26,
            "Height",
            "HEIGHT",
            191.0,
            191,
            null,
            null,
            null,
            null,
            null,
            null,
            null,
            "Y",
            "Y",
            "Y",
            "Y",
            "Y"
        ],
        [
            "XYZ",
            "ADVS",
            "XYZ-001-38",
            38,
            26,
            "Weight",
            "WEIGHT",
            155.0,
            155,
            null,
            null,
            null,
            null,
            null,
            null,
            null,
            "Y",
            "Y",
            "Y",
            "Y",
            "Y"
        ],
        [
            "XYZ",
            "ADVS",
            "XYZ-001-38",
            38,
            26,
            "Neck Circumference",
            "NECKCIR",
            44.0,
            44,
            null,
            null,
            null,
            null,
            null,
            null,
            null,
            "Y",
            "Y",
            "Y",
            "Y",
            "Y"
        ],
        [
            "XYZ",
            "ADVS",
            "XYZ-001-38",
            38,
            26,
            "Body Mass Index",
            "BMI",
            42.5,
            42,
            null,
            null,
            null,
            null,
            null,
            null,
            null,
            "Y",
            "Y",
            "Y",
            "Y",
            "Y"
        ],
        [
            "XYZ",
            "ADVS",
            "XYZ-001-35",
            35,
            25,
            "Height",
            "HEIGHT",
            195.0,
            195,
            null,
            null,
            null,
            null,
            null,
            null,
            null,
            "Y",
            "Y",
            "Y",
            "Y",
            "Y"
        ],
        [
            "XYZ",
            "ADVS",
            "XYZ-001-35",
            35,
            25,
            "Weight",
            "WEIGHT",
            152.0,
            152,
            null,
            null,
            null,
            null,
            null,
            null,
            null,
            "Y",
            "Y",
            "Y",
            "Y",
            "Y"
        ],
        [
            "XYZ",
            "ADVS",
            "XYZ-001-35",
            35,
            25,
            "Neck Circumference",
            "NECKCIR",
            42.0,
            42,
            null,
            null,
            null,
            null,
            null,
            null,
            null,
            "Y",
            "Y",
            "Y",
            "Y",
            "Y"
        ],
        [
            "XYZ",
            "ADVS",
            "XYZ-001-35",
            35,
            25,
            "Body Mass Index",
            "BMI",
            40.0,
            40,
            null,
            null,
            null,
            null,
            null,
            null,
            null,
            "Y",
            "Y",
            "Y",
            "Y",
            "Y"
        ],
        [
            "XYZ",
            "ADVS",
            "XYZ-001-16",
            16,
            11,
            "Height",
            "HEIGHT",
            143.0,
            143,
            null,
            null,
            null,
            null,
            null,
            null,
            null,
            "Y",
            "Y",
            "Y",
            "Y",
            "Y"
        ],
        [
            "XYZ",
            "ADVS",
            "XYZ-001-16",
            16,
            11,
            "Weight",
            "WEIGHT",
            80.0,
            80,
            null,
            null,
            null,
            null,
            null,
            null,
            null,
            "Y",
            "Y",
            "Y",
            "Y",
            "Y"
        ],
        [
            "XYZ",
            "ADVS",
            "XYZ-001-16",
            16,
            11,
            "Neck Circumference",
            "NECKCIR",
            43.0,
            43,
            null,
            null,
            null,
            null,
            null,
            null,
            null,
            "Y",
            "Y",
            "Y",
            "Y",
            "Y"
        ],
        [
            "XYZ",
            "ADVS",
            "XYZ-001-16",
            16,
            11,
            "Body Mass Index",
            "BMI",
            39.1,
            39,
            null,
            null,
            null,
            null,
            null,
            null,
            null,
            "Y",
            "Y",
            "Y",
            "Y",
            "Y"
        ],
        [
            "XYZ",
            "ADVS",
            "XYZ-001-28",
            28,
            20,
            "Height",
            "HEIGHT",
            165.0,
            165,
            null,
            null,
            null,
            null,
            null,
            null,
            null,
            "Y",
            "Y",
            "Y",
            "Y",
            "Y"
        ],
        [
            "XYZ",
            "ADVS",
            "XYZ-001-28",
            28,
            20,
            "Weight",
            "WEIGHT",
            117.0,
            117,
            null,
            null,
            null,
            null,
            null,
            null,
            null,
            "Y",
            "Y",
            "Y",
            "Y",
            "Y"
        ],
        [
            "XYZ",
            "ADVS",
            "XYZ-001-28",
            28,
            20,
            "Neck Circumference",
            "NECKCIR",
            42.0,
            42,
            null,
            null,
            null,
            null,
            null,
            null,
            null,
            "Y",
            "Y",
            "Y",
            "Y",
            "Y"
        ],
        [
            "XYZ",
            "ADVS",
            "XYZ-001-28",
            28,
            20,
            "Body Mass Index",
            "BMI",
            43.0,
            43,
            null,
            null,
            null,
            null,
            null,
            null,
            null,
            "Y",
            "Y",
            "Y",
            "Y",
            "Y"
        ],
        [
            "XYZ",
            "ADVS",
            "XYZ-001-20",
            20,
            15,
            "Height",
            "HEIGHT",
            168.0,
            168,
            null,
            null,
            null,
            null,
            null,
            null,
            null,
            "Y",
            "Y",
            "Y",
            "Y",
            "Y"
        ],
        [
            "XYZ",
            "ADVS",
            "XYZ-001-20",
            20,
            15,
            "Weight",
            "WEIGHT",
            127.0,
            127,
            null,
            null,
            null,
            null,
            null,
            null,
            null,
            "Y",
            "Y",
            "Y",
            "Y",
            "Y"
        ],
        [
            "XYZ",
            "ADVS",
            "XYZ-001-20",
            20,
            15,
            "Neck Circumference",
            "NECKCIR",
            43.0,
            43,
            null,
            null,
            null,
            null,
            null,
            null,
            null,
            "Y",
            "Y",
            "Y",
            "Y",
            "Y"
        ],
        [
            "XYZ",
            "ADVS",
            "XYZ-001-20",
            20,
            15,
            "Body Mass Index",
            "BMI",
            45.0,
            45,
            null,
            null,
            null,
            null,
            null,
            null,
            null,
            "Y",
            "Y",
            "Y",
            "Y",
            "Y"
        ],
        [
            "XYZ",
            "ADVS",
            "XYZ-001-1",
            1,
            1,
            "Height",
            "HEIGHT",
            199.0,
            199,
            null,
            null,
            null,
            null,
            null,
            null,
            null,
            "Y",
            "Y",
            "Y",
            "Y",
            "Y"
        ],
        [
            "XYZ",
            "ADVS",
            "XYZ-001-1",
            1,
            1,
            "Weight",
            "WEIGHT",
            154.0,
            154,
            null,
            null,
            null,
            null,
            null,
            null,
            null,
            "Y",
            "Y",
            "Y",
            "Y",
            "Y"
        ],
        [
            "XYZ",
            "ADVS",
            "XYZ-001-1",
            1,
            1,
            "Neck Circumference",
            "NECKCIR",
            45.0,
            45,
            null,
            null,
            null,
            null,
            null,
            null,
            null,
            "Y",
            "Y",
            "Y",
            "Y",
            "Y"
        ],
        [
            "XYZ",
            "ADVS",
            "XYZ-001-1",
            1,
            1,
            "Body Mass Index",
            "BMI",
            38.9,
            38,
            null,
            null,
            null,
            null,
            null,
            null,
            null,
            "Y",
            "Y",
            "Y",
            "Y",
            "Y"
        ],
        [
            "XYZ",
            "ADVS",
            "XYZ-001-39",
            39,
            27,
            "Height",
            "HEIGHT",
            182.0,
            182,
            null,
            null,
            null,
            null,
            null,
            null,
            null,
            "Y",
            "Y",
            "Y",
            "Y",
            "Y"
        ],
        [
            "XYZ",
            "ADVS",
            "XYZ-001-39",
            39,
            27,
            "Weight",
            "WEIGHT",
            130.0,
            130,
            null,
            null,
            null,
            null,
            null,
            null,
            null,
            "Y",
            "Y",
            "Y",
            "Y",
            "Y"
        ],
        [
            "XYZ",
            "ADVS",
            "XYZ-001-39",
            39,
            27,
            "Neck Circumference",
            "NECKCIR",
            42.0,
            42,
            null,
            null,
            null,
            null,
            null,
            null,
            null,
            "Y",
            "Y",
            "Y",
            "Y",
            "Y"
        ],
        [
            "XYZ",
            "ADVS",
            "XYZ-001-39",
            39,
            27,
            "Body Mass Index",
            "BMI",
            39.2,
            39,
            null,
            null,
            null,
            null,
            null,
            null,
            null,
            "Y",
            "Y",
            "Y",
            "Y",
            "Y"
        ],
        [
            "XYZ",
            "ADVS",
            "XYZ-001-21",
            21,
            16,
            "Height",
            "HEIGHT",
            173.0,
            173,
            null,
            null,
            null,
            null,
            null,
            null,
            null,
            "Y",
            "Y",
            "Y",
            "Y",
            "Y"
        ],
        [
            "XYZ",
            "ADVS",
            "XYZ-001-21",
            21,
            16,
            "Weight",
            "WEIGHT",
            131.0,
            131,
            null,
            null,
            null,
            null,
            null,
            null,
            null,
            "Y",
            "Y",
            "Y",
            "Y",
            "Y"
        ],
        [
            "XYZ",
            "ADVS",
            "XYZ-001-21",
            21,
            16,
            "Neck Circumference",
            "NECKCIR",
            44.0,
            44,
            null,
            null,
            null,
            null,
            null,
            null,
            null,
            "Y",
            "Y",
            "Y",
            "Y",
            "Y"
        ],
        [
            "XYZ",
            "ADVS",
            "XYZ-001-21",
            21,
            16,
            "Body Mass Index",
            "BMI",
            43.8,
            43,
            null,
            null,
            null,
            null,
            null,
            null,
            null,
            "Y",
            "Y",
            "Y",
            "Y",
            "Y"
        ],
        [
            "XYZ",
            "ADVS",
            "XYZ-001-5",
            5,
            3,
            "Height",
            "HEIGHT",
            177.0,
            177,
            null,
            null,
            null,
            null,
            null,
            null,
            null,
            "Y",
            "Y",
            "Y",
            "Y",
            "Y"
        ],
        [
            "XYZ",
            "ADVS",
            "XYZ-001-5",
            5,
            3,
            "Weight",
            "WEIGHT",
            116.0,
            116,
            null,
            null,
            null,
            null,
            null,
            null,
            null,
            "Y",
            "Y",
            "Y",
            "Y",
            "Y"
        ],
        [
            "XYZ",
            "ADVS",
            "XYZ-001-5",
            5,
            3,
            "Neck Circumference",
            "NECKCIR",
            42.0,
            42,
            null,
            null,
            null,
            null,
            null,
            null,
            null,
            "Y",
            "Y",
            "Y",
            "Y",
            "Y"
        ],
        [
            "XYZ",
            "ADVS",
            "XYZ-001-5",
            5,
            3,
            "Body Mass Index",
            "BMI",
            37.0,
            37,
            null,
            null,
            null,
            null,
            null,
            null,
            null,
            "Y",
            "Y",
            "Y",
            "Y",
            "Y"
        ],
        [
            "XYZ",
            "ADVS",
            "XYZ-001-32",
            32,
            23,
            "Height",
            "HEIGHT",
            180.0,
            180,
            null,
            null,
            null,
            null,
            null,
            null,
            null,
            "Y",
            "Y",
            "Y",
            "Y",
            "Y"
        ],
        [
            "XYZ",
            "ADVS",
            "XYZ-001-32",
            32,
            23,
            "Weight",
            "WEIGHT",
            140.0,
            140,
            null,
            null,
            null,
            null,
            null,
            null,
            null,
            "Y",
            "Y",
            "Y",
            "Y",
            "Y"
        ],
        [
            "XYZ",
            "ADVS",
            "XYZ-001-32",
            32,
            23,
            "Neck Circumference",
            "NECKCIR",
            42.0,
            42,
            null,
            null,
            null,
            null,
            null,
            null,
            null,
            "Y",
            "Y",
            "Y",
            "Y",
            "Y"
        ],
        [
            "XYZ",
            "ADVS",
            "XYZ-001-32",
            32,
            23,
            "Body Mass Index",
            "BMI",
            43.2,
            43,
            null,
            null,
            null,
            null,
            null,
            null,
            null,
            "Y",
            "Y",
            "Y",
            "Y",
            "Y"
        ],
        [
            "XYZ",
            "ADVS",
            "XYZ-001-18",
            18,
            13,
            "Height",
            "HEIGHT",
            168.0,
            168,
            null,
            null,
            null,
            null,
            null,
            null,
            null,
            "Y",
            "Y",
            "Y",
            "Y",
            "Y"
        ],
        [
            "XYZ",
            "ADVS",
            "XYZ-001-18",
            18,
            13,
            "Weight",
            "WEIGHT",
            107.0,
            107,
            null,
            null,
            null,
            null,
            null,
            null,
            null,
            "Y",
            "Y",
            "Y",
            "Y",
            "Y"
        ],
        [
            "XYZ",
            "ADVS",
            "XYZ-001-18",
            18,
            13,
            "Neck Circumference",
            "NECKCIR",
            45.0,
            45,
            null,
            null,
            null,
            null,
            null,
            null,
            null,
            "Y",
            "Y",
            "Y",
            "Y",
            "Y"
        ],
        [
            "XYZ",
            "ADVS",
            "XYZ-001-18",
            18,
            13,
            "Body Mass Index",
            "BMI",
            37.9,
            37,
            null,
            null,
            null,
            null,
            null,
            null,
            null,
            "Y",
            "Y",
            "Y",
            "Y",
            "Y"
        ],
        [
            "XYZ",
            "ADVS",
            "XYZ-001-19",
            19,
            14,
            "Height",
            "HEIGHT",
            170.0,
            170,
            null,
            null,
            null,
            null,
            null,
            null,
            null,
            "Y",
            "Y",
            "Y",
            "Y",
            "Y"
        ],
        [
            "XYZ",
            "ADVS",
            "XYZ-001-19",
            19,
            14,
            "Weight",
            "WEIGHT",
            116.0,
            116,
            null,
            null,
            null,
            null,
            null,
            null,
            null,
            "Y",
            "Y",
            "Y",
            "Y",
            "Y"
        ],
        [
            "XYZ",
            "ADVS",
            "XYZ-001-19",
            19,
            14,
            "Neck Circumference",
            "NECKCIR",
            45.0,
            45,
            null,
            null,
            null,
            null,
            null,
            null,
            null,
            "Y",
            "Y",
            "Y",
            "Y",
            "Y"
        ],
        [
            "XYZ",
            "ADVS",
            "XYZ-001-19",
            19,
            14,
            "Body Mass Index",
            "BMI",
            40.1,
            40,
            null,
            null,
            null,
            null,
            null,
            null,
            null,
            "Y",
            "Y",
            "Y",
            "Y",
            "Y"
        ],
        [
            "XYZ",
            "ADVS",
            "XYZ-001-23",
            23,
            17,
            "Height",
            "HEIGHT",
            153.0,
            153,
            null,
            null,
            null,
            null,
            null,
            null,
            null,
            "Y",
            "Y",
            "Y",
            "Y",
            "Y"
        ],
        [
            "XYZ",
            "ADVS",
            "XYZ-001-23",
            23,
            17,
            "Weight",
            "WEIGHT",
            103.0,
            103,
            null,
            null,
            null,
            null,
            null,
            null,
            null,
            "Y",
            "Y",
            "Y",
            "Y",
            "Y"
        ],
        [
            "XYZ",
            "ADVS",
            "XYZ-001-23",
            23,
            17,
            "Neck Circumference",
            "NECKCIR",
            41.0,
            41,
            null,
            null,
            null,
            null,
            null,
            null,
            null,
            "Y",
            "Y",
            "Y",
            "Y",
            "Y"
        ],
        [
            "XYZ",
            "ADVS",
            "XYZ-001-23",
            23,
            17,
            "Body Mass Index",
            "BMI",
            44.0,
            44,
            null,
            null,
            null,
            null,
            null,
            null,
            null,
            "Y",
            "Y",
            "Y",
            "Y",
            "Y"
        ],
        [
            "XYZ",
            "ADVS",
            "XYZ-001-2",
            2,
            2,
            "Height",
            "HEIGHT",
            150.0,
            150,
            null,
            null,
            null,
            null,
            null,
            null,
            null,
            "Y",
            "Y",
            "Y",
            "Y",
            "Y"
        ],
        [
            "XYZ",
            "ADVS",
            "XYZ-001-2",
            2,
            2,
            "Weight",
            "WEIGHT",
            85.0,
            85,
            null,
            null,
            null,
            null,
            null,
            null,
            null,
            "Y",
            "Y",
            "Y",
            "Y",
            "Y"
        ],
        [
            "XYZ",
            "ADVS",
            "XYZ-001-2",
            2,
            2,
            "Neck Circumference",
            "NECKCIR",
            44.0,
            44,
            null,
            null,
            null,
            null,
            null,
            null,
            null,
            "Y",
            "Y",
            "Y",
            "Y",
            "Y"
        ],
        [
            "XYZ",
            "ADVS",
            "XYZ-001-2",
            2,
            2,
            "Body Mass Index",
            "BMI",
            37.8,
            37,
            null,
            null,
            null,
            null,
            null,
            null,
            null,
            "Y",
            "Y",
            "Y",
            "Y",
            "Y"
        ],
        [
            "XYZ",
            "ADVS",
            "XYZ-001-34",
            34,
            24,
            "Height",
            "HEIGHT",
            175.0,
            175,
            null,
            null,
            null,
            null,
            null,
            null,
            null,
            "Y",
            "Y",
            "Y",
            "Y",
            "Y"
        ],
        [
            "XYZ",
            "ADVS",
            "XYZ-001-34",
            34,
            24,
            "Weight",
            "WEIGHT",
            121.0,
            121,
            null,
            null,
            null,
            null,
            null,
            null,
            null,
            "Y",
            "Y",
            "Y",
            "Y",
            "Y"
        ],
        [
            "XYZ",
            "ADVS",
            "XYZ-001-34",
            34,
            24,
            "Neck Circumference",
            "NECKCIR",
            41.0,
            41,
            null,
            null,
            null,
            null,
            null,
            null,
            null,
            "Y",
            "Y",
            "Y",
            "Y",
            "Y"
        ],
        [
            "XYZ",
            "ADVS",
            "XYZ-001-34",
            34,
            24,
            "Body Mass Index",
            "BMI",
            39.5,
            39,
            null,
            null,
            null,
            null,
            null,
            null,
            null,
            "Y",
            "Y",
            "Y",
            "Y",
            "Y"
        ]
    ]
}