{
    "datasetJSONCreationDateTime": "2025-01-17T10:23:03",
    "datasetJSONVersion": "1.1.0",
    "fileOID": "XYZ_SDTM_ADQS",
    "dbLastModifiedDateTime": "2025-01-17T10:23:03",
    "originator": "EDA Clinical",
    "sourceSystem": {
        "name": "Python",
        "version": "3.8.0"
    },
    "studyOID": "SilentNight",
    "metaDataVersionOID": "1.0",
    "metaDataRef": "define.xml",
    "itemGroupOID": "IG.ADQS",
    "records": 1242,
    "name": "ADQS",
    "label": "Analysis Dataset of Questionnaires",
    "columns": [
        {
            "itemOID": "IT.ADQS.STUDYID",
            "name": "STUDYID",
            "label": "Study Identifier",
            "dataType": "string",
            "length": 3,
            "keySequence": 1
        },
        {
            "itemOID": "IT.ADQS.DOMAIN",
            "name": "DOMAIN",
            "label": "Domain",
            "dataType": "string",
            "length": 4,
            "keySequence": 2
        },
        {
            "itemOID": "IT.ADQS.USUBJID",
            "name": "USUBJID",
            "label": "Unique Subject Identifier",
            "dataType": "string",
            "length": 10,
            "keySequence": 3
        },
        {
            "itemOID": "IT.ADQS.SUBJID",
            "name": "SUBJID",
            "label": "Subject Identifier for the Study",
            "dataType": "integer",
            "length": 4,
            "keySequence": 4
        },
        {
            "itemOID": "IT.ADQS.QSSEQ",
            "name": "QSSEQ",
            "label": "Questionnaire ",
            "dataType": "integer",
            "length": 2,
            "keySequence": 5
        },
        {
            "itemOID": "IT.ADQS.PARAM",
            "name": "PARAM",
            "label": "Parameter",
            "dataType": "string",
            "length": 40,
            "keySequence": 6
        },
        {
            "itemOID": "IT.ADQS.PARAMCD",
            "name": "PARAMCD",
            "label": "Parameter Code",
            "dataType": "string",
            "length": 8,
            "keySequence": 7
        },
        {
            "itemOID": "IT.ADQS.PARCAT1",
            "name": "PARCAT1",
            "label": "Parameter Category 1",
            "dataType": "string",
            "length": 31,
            "keySequence": 8
        },
        {
            "itemOID": "IT.ADQS.AVAL",
            "name": "AVAL",
            "label": "Analysis Value",
            "dataType": "string",
            "length": 104,
            "keySequence": 9
        },
        {
            "itemOID": "IT.ADQS.AVALC",
            "name": "AVALC",
            "label": "Analysis Value Character",
            "dataType": "string",
            "length": 104,
            "keySequence": 10
        },
        {
            "itemOID": "IT.ADQS.DTYPE",
            "name": "DTYPE",
            "label": "Derivation Type",
            "dataType": "string",
            "length": 4,
            "keySequence": 11
        },
        {
            "itemOID": "IT.ADQS.QSDT",
            "name": "QSDT",
            "label": "Date of collection of questionnaire",
            "dataType": "string",
            "length": 10,
            "keySequence": 12
        },
        {
            "itemOID": "IT.ADQS.ADT",
            "name": "ADT",
            "label": "Analysis Date",
            "dataType": "string",
            "length": 10,
            "keySequence": 13
        },
        {
            "itemOID": "IT.ADQS.VISIT",
            "name": "VISIT",
            "label": "Visit",
            "dataType": "string",
            "length": 4,
            "keySequence": 14
        },
        {
            "itemOID": "IT.ADQS.VISITNUM  ",
            "name": "VISITNUM  ",
            "label": "Visit Number",
            "dataType": "string",
            "length": 4,
            "keySequence": 15
        },
        {
            "itemOID": "IT.ADQS.AVISIT",
            "name": "AVISIT",
            "label": "Actual Visit",
            "dataType": "string",
            "length": 4,
            "keySequence": 16
        },
        {
            "itemOID": "IT.ADQS.AVISITN",
            "name": "AVISITN",
            "label": "Actual Visit Number",
            "dataType": "string",
            "length": 4,
            "keySequence": 17
        },
        {
            "itemOID": "IT.ADQS.TRTC",
            "name": "TRTC",
            "label": "Current Treatment",
            "dataType": "string",
            "length": 4,
            "keySequence": 18
        },
        {
            "itemOID": "IT.ADQS.ANL01FL",
            "name": "ANL01FL",
            "label": "Analysis Flag 1",
            "dataType": "string",
            "length": 4,
            "keySequence": 19
        },
        {
            "itemOID": "IT.ADQS.FASFL",
            "name": "FASFL",
            "label": "Full Analysis Set",
            "dataType": "string",
            "length": 1,
            "keySequence": 20
        },
        {
            "itemOID": "IT.ADQS.SAFFL",
            "name": "SAFFL",
            "label": "Safety",
            "dataType": "string",
            "length": 1,
            "keySequence": 21
        },
        {
            "itemOID": "IT.ADQS.ITTFL",
            "name": "ITTFL",
            "label": "Intent-to-Treat",
            "dataType": "string",
            "length": 1,
            "keySequence": 22
        },
        {
            "itemOID": "IT.ADQS.COMPLFL",
            "name": "COMPLFL",
            "label": "Completed the Study",
            "dataType": "string",
            "length": 1,
            "keySequence": 23
        },
        {
            "itemOID": "IT.ADQS.ENRLFL",
            "name": "ENRLFL",
            "label": "Enrolled in the Study",
            "dataType": "string",
            "length": 1,
            "keySequence": 24
        }
    ],
    "rows": [
        [
            "XYZ",
            "ADQS",
            "XYZ-001-26",
            26.0,
            1,
            "Understand Participant Information Sheet",
            "UNDRINFO",
            "CONSENT FORM QUESTIONNAIRE",
            "YES",
            "YES",
            null,
            "01-08-2019",
            "01-08-2019",
            null,
            null,
            null,
            null,
            null,
            null,
            "Y",
            "Y",
            "Y",
            "Y",
            "Y"
        ],
        [
            "XYZ",
            "ADQS",
            "XYZ-001-26",
            17.0,
            1,
            "Had Sufficient Time To Consider",
            "SUFFTIME",
            "CONSENT FORM QUESTIONNAIRE",
            "YES",
            "YES",
            null,
            "01-08-2019",
            "01-08-2019",
            null,
            null,
            null,
            null,
            null,
            null,
            "Y",
            "Y",
            "Y",
            "Y",
            "Y"
        ],
        [
            "XYZ",
            "ADQS",
            "XYZ-001-26",
            14.0,
            1,
            "Could Get Assistance To Understand Trial",
            "ASSTUNDR",
            "CONSENT FORM QUESTIONNAIRE",
            "YES",
            "YES",
            null,
            "01-08-2019",
            "01-08-2019",
            null,
            null,
            null,
            null,
            null,
            null,
            "Y",
            "Y",
            "Y",
            "Y",
            "Y"
        ],
        [
            "XYZ",
            "ADQS",
            "XYZ-001-26",
            27.0,
            1,
            "Satisfied With Explanation Of Trial",
            "STSFEXPL",
            "CONSENT FORM QUESTIONNAIRE",
            "YES",
            "YES",
            null,
            "01-08-2019",
            "01-08-2019",
            null,
            null,
            null,
            null,
            null,
            null,
            "Y",
            "Y",
            "Y",
            "Y",
            "Y"
        ],
        [
            "XYZ",
            "ADQS",
            "XYZ-001-26",
            13.0,
            1,
            "Understand My Participation Is Voluntary",
            "PRTCPVOL",
            "CONSENT FORM QUESTIONNAIRE",
            "YES",
            "YES",
            null,
            "01-08-2019",
            "01-08-2019",
            null,
            null,
            null,
            null,
            null,
            null,
            "Y",
            "Y",
            "Y",
            "Y",
            "Y"
        ],
        [
            "XYZ",
            "ADQS",
            "XYZ-001-26",
            12.0,
            1,
            "Consent To Information Collection",
            "CONSINFC",
            "CONSENT FORM QUESTIONNAIRE",
            "YES",
            "YES",
            null,
            "01-08-2019",
            "01-08-2019",
            null,
            null,
            null,
            null,
            null,
            null,
            "Y",
            "Y",
            "Y",
            "Y",
            "Y"
        ],
        [
            "XYZ",
            "ADQS",
            "XYZ-001-26",
            7.0,
            1,
            "Assured About Data Confidentiality",
            "ASDTCONF",
            "CONSENT FORM QUESTIONNAIRE",
            "YES",
            "YES",
            null,
            "01-08-2019",
            "01-08-2019",
            null,
            null,
            null,
            null,
            null,
            null,
            "Y",
            "Y",
            "Y",
            "Y",
            "Y"
        ],
        [
            "XYZ",
            "ADQS",
            "XYZ-001-26",
            29.0,
            1,
            "Understand I Get Copy Of My Results",
            "COPYRES",
            "CONSENT FORM QUESTIONNAIRE",
            "YES",
            "YES",
            null,
            "01-08-2019",
            "01-08-2019",
            null,
            null,
            null,
            null,
            null,
            null,
            "Y",
            "Y",
            "Y",
            "Y",
            "Y"
        ],
        [
            "XYZ",
            "ADQS",
            "XYZ-001-26",
            15.0,
            1,
            "Understand No Expenses Or Financial Aid",
            "NOFINAID",
            "CONSENT FORM QUESTIONNAIRE",
            "YES",
            "YES",
            null,
            "01-08-2019",
            "01-08-2019",
            null,
            null,
            null,
            null,
            null,
            null,
            "Y",
            "Y",
            "Y",
            "Y",
            "Y"
        ],
        [
            "XYZ",
            "ADQS",
            "XYZ-001-26",
            6.0,
            1,
            "Understand I Can Withdraw At Any Time",
            "WITHDRTM",
            "CONSENT FORM QUESTIONNAIRE",
            "YES",
            "YES",
            null,
            "01-08-2019",
            "01-08-2019",
            null,
            null,
            null,
            null,
            null,
            null,
            "Y",
            "Y",
            "Y",
            "Y",
            "Y"
        ],
        [
            "XYZ",
            "ADQS",
            "XYZ-001-26",
            31.0,
            1,
            "Agree To Allow Data Use After Withdrawal",
            "ALLWDATA",
            "CONSENT FORM QUESTIONNAIRE",
            "YES",
            "YES",
            null,
            "01-08-2019",
            "01-08-2019",
            null,
            null,
            null,
            null,
            null,
            null,
            "Y",
            "Y",
            "Y",
            "Y",
            "Y"
        ],
        [
            "XYZ",
            "ADQS",
            "XYZ-001-26",
            8.0,
            1,
            "Have Contact Info For Questions",
            "CONTQUES",
            "CONSENT FORM QUESTIONNAIRE",
            "YES",
            "YES",
            null,
            "01-08-2019",
            "01-08-2019",
            null,
            null,
            null,
            null,
            null,
            null,
            "Y",
            "Y",
            "Y",
            "Y",
            "Y"
        ],
        [
            "XYZ",
            "ADQS",
            "XYZ-001-26",
            38.0,
            1,
            "Understand Participant Responsibilities",
            "UNDRRESP",
            "CONSENT FORM QUESTIONNAIRE",
            "YES",
            "YES",
            null,
            "01-08-2019",
            "01-08-2019",
            null,
            null,
            null,
            null,
            null,
            null,
            "Y",
            "Y",
            "Y",
            "Y",
            "Y"
        ],
        [
            "XYZ",
            "ADQS",
            "XYZ-001-26",
            35.0,
            1,
            "Waist Circumference Over Mark",
            "OBESITY",
            "OSA 50 SCREENING QUESTIONNAIRE",
            3,
            "3",
            null,
            null,
            null,
            null,
            null,
            null,
            null,
            null,
            null,
            "Y",
            "Y",
            "Y",
            "Y",
            "Y"
        ],
        [
            "XYZ",
            "ADQS",
            "XYZ-001-26",
            16.0,
            1,
            "Snoring Bothered Other People",
            "SNORER",
            "OSA 50 SCREENING QUESTIONNAIRE",
            3,
            "3",
            null,
            null,
            null,
            null,
            null,
            null,
            null,
            null,
            null,
            "Y",
            "Y",
            "Y",
            "Y",
            "Y"
        ],
        [
            "XYZ",
            "ADQS",
            "XYZ-001-26",
            28.0,
            1,
            "Told I Stop Breathing During Sleep",
            "APNEA",
            "OSA 50 SCREENING QUESTIONNAIRE",
            0,
            "0",
            null,
            null,
            null,
            null,
            null,
            null,
            null,
            null,
            null,
            "Y",
            "Y",
            "Y",
            "Y",
            "Y"
        ],
        [
            "XYZ",
            "ADQS",
            "XYZ-001-26",
            20.0,
            1,
            "Over 50 Years Old",
            "OVER50",
            "OSA 50 SCREENING QUESTIONNAIRE",
            0,
            "0",
            null,
            null,
            null,
            null,
            null,
            null,
            null,
            null,
            null,
            "Y",
            "Y",
            "Y",
            "Y",
            "Y"
        ],
        [
            "XYZ",
            "ADQS",
            "XYZ-001-26",
            1.0,
            1,
            "Total Score",
            "TOTSCORE",
            "OSA 50 SCREENING QUESTIONNAIRE",
            6,
            "6",
            null,
            null,
            null,
            null,
            null,
            null,
            null,
            null,
            null,
            "Y",
            "Y",
            "Y",
            "Y",
            "Y"
        ],
        [
            "XYZ",
            "ADQS",
            "XYZ-001-26",
            39.0,
            1,
            "Do You Snore Loudly",
            "LOUDSNOR",
            "STOP-BANG QUESTIONNAIRE",
            0,
            "0",
            null,
            null,
            null,
            null,
            null,
            null,
            null,
            null,
            null,
            "Y",
            "Y",
            "Y",
            "Y",
            "Y"
        ],
        [
            "XYZ",
            "ADQS",
            "XYZ-001-26",
            21.0,
            1,
            "Feel Tired Or Sleepy During Daytime",
            "DAYSLEEP",
            "STOP-BANG QUESTIONNAIRE",
            0,
            "0",
            null,
            null,
            null,
            null,
            null,
            null,
            null,
            null,
            null,
            "Y",
            "Y",
            "Y",
            "Y",
            "Y"
        ],
        [
            "XYZ",
            "ADQS",
            "XYZ-001-26",
            5.0,
            1,
            "Do You Stop Breathing During Sleep",
            "STOPBRTH",
            "STOP-BANG QUESTIONNAIRE",
            0,
            "0",
            null,
            null,
            null,
            null,
            null,
            null,
            null,
            null,
            null,
            "Y",
            "Y",
            "Y",
            "Y",
            "Y"
        ],
        [
            "XYZ",
            "ADQS",
            "XYZ-001-26",
            32.0,
            1,
            "Do You Have High Blood Pressure",
            "HIGHBP",
            "STOP-BANG QUESTIONNAIRE",
            1,
            "1",
            null,
            null,
            null,
            null,
            null,
            null,
            null,
            null,
            null,
            "Y",
            "Y",
            "Y",
            "Y",
            "Y"
        ],
        [
            "XYZ",
            "ADQS",
            "XYZ-001-26",
            18.0,
            1,
            "Subject BMI",
            "BMI",
            "STOP-BANG QUESTIONNAIRE",
            0,
            "0",
            null,
            null,
            null,
            null,
            null,
            null,
            null,
            null,
            null,
            "Y",
            "Y",
            "Y",
            "Y",
            "Y"
        ],
        [
            "XYZ",
            "ADQS",
            "XYZ-001-26",
            19.0,
            1,
            "Subject Age",
            "AGE",
            "STOP-BANG QUESTIONNAIRE",
            0,
            "0",
            null,
            null,
            null,
            null,
            null,
            null,
            null,
            null,
            null,
            "Y",
            "Y",
            "Y",
            "Y",
            "Y"
        ],
        [
            "XYZ",
            "ADQS",
            "XYZ-001-26",
            23.0,
            1,
            "Subject Neck Circumference",
            "NECKCIRC",
            "STOP-BANG QUESTIONNAIRE",
            0,
            "0",
            null,
            null,
            null,
            null,
            null,
            null,
            null,
            null,
            null,
            "Y",
            "Y",
            "Y",
            "Y",
            "Y"
        ],
        [
            "XYZ",
            "ADQS",
            "XYZ-001-26",
            2.0,
            1,
            "Subject Sex",
            "SEX",
            "STOP-BANG QUESTIONNAIRE",
            1,
            "1",
            null,
            null,
            null,
            null,
            null,
            null,
            null,
            null,
            null,
            "Y",
            "Y",
            "Y",
            "Y",
            "Y"
        ],
        [
            "XYZ",
            "ADQS",
            "XYZ-001-26",
            34.0,
            1,
            "Total STOP-BANG points",
            "TOTSCORE",
            "STOP-BANG QUESTIONNAIRE",
            2,
            "2",
            null,
            null,
            null,
            null,
            null,
            null,
            null,
            null,
            null,
            "Y",
            "Y",
            "Y",
            "Y",
            "Y"
        ],
        [
            "XYZ",
            "ADQS",
            "XYZ-001-26",
            null,
            1,
            "Risk Category",
            "RISKCAT",
            "STOP-BANG QUESTIONNAIRE",
            "Low",
            "Low",
            null,
            null,
            null,
            null,
            null,
            null,
            null,
            null,
            null,
            "Y",
            "Y",
            "Y",
            "Y",
            "Y"
        ],
        [
            "XYZ",
            "ADQS",
            "XYZ-001-26",
            null,
            1,
            "Average Snore Nights Per Week",
            "SNORNTWK",
            "SNORING PHENOTYPE QUESTIONNAIRE",
            "1-2 Nights",
            "1-2 Nights",
            null,
            "01-08-2019",
            "01-08-2019",
            null,
            null,
            null,
            null,
            null,
            null,
            "Y",
            "Y",
            "Y",
            "Y",
            "Y"
        ],
        [
            "XYZ",
            "ADQS",
            "XYZ-001-26",
            null,
            1,
            "Describe How Loudly You Snore",
            "SNORVOL",
            "SNORING PHENOTYPE QUESTIONNAIRE",
            "Very Quiet",
            "Very Quiet",
            null,
            "01-08-2019",
            "01-08-2019",
            null,
            null,
            null,
            null,
            null,
            null,
            "Y",
            "Y",
            "Y",
            "Y",
            "Y"
        ],
        [
            "XYZ",
            "ADQS",
            "XYZ-001-26",
            null,
            1,
            "Notice Sleeping Position Effect",
            "SNORPOS",
            "SNORING PHENOTYPE QUESTIONNAIRE",
            "Lying on side with knees towards chest",
            "Lying on side with knees towards chest",
            null,
            "01-08-2019",
            "01-08-2019",
            null,
            null,
            null,
            null,
            null,
            null,
            "Y",
            "Y",
            "Y",
            "Y",
            "Y"
        ],
        [
            "XYZ",
            "ADQS",
            "XYZ-001-26",
            null,
            1,
            "Snoring Regularly For How Long",
            "REGSNDUR",
            "SNORING PHENOTYPE QUESTIONNAIRE",
            "1-5 years",
            "1-5 years",
            null,
            "01-08-2019",
            "01-08-2019",
            null,
            null,
            null,
            null,
            null,
            null,
            "Y",
            "Y",
            "Y",
            "Y",
            "Y"
        ],
        [
            "XYZ",
            "ADQS",
            "XYZ-001-26",
            null,
            1,
            "Does Snoring Disrupt Sleep Quality",
            "SNSLPQUL",
            "SNORING PHENOTYPE QUESTIONNAIRE",
            "Excessive Daytime Sleepiness",
            "Excessive Daytime Sleepiness",
            null,
            "01-08-2019",
            "01-08-2019",
            null,
            null,
            null,
            null,
            null,
            null,
            "Y",
            "Y",
            "Y",
            "Y",
            "Y"
        ],
        [
            "XYZ",
            "ADQS",
            "XYZ-001-26",
            null,
            1,
            "Rate Last Night's Sleep Quality 1 to 10",
            "RATEQSLP",
            "DAILY QUESTIONNAIRE FOR SNORER",
            2,
            "2",
            null,
            "01-08-2019",
            "01-08-2019",
            null,
            null,
            null,
            null,
            null,
            null,
            "Y",
            "Y",
            "Y",
            "Y",
            "Y"
        ],
        [
            "XYZ",
            "ADQS",
            "XYZ-001-26",
            null,
            1,
            "Use Medical Device Last Night",
            "DEVUSE",
            "DAILY QUESTIONNAIRE FOR SNORER",
            "YES",
            "YES",
            null,
            "01-08-2019",
            "01-08-2019",
            null,
            null,
            null,
            null,
            null,
            null,
            "Y",
            "Y",
            "Y",
            "Y",
            "Y"
        ],
        [
            "XYZ",
            "ADQS",
            "XYZ-001-26",
            null,
            1,
            "Experience Discomfort With Device",
            "DEVCOMF",
            "DAILY QUESTIONNAIRE FOR SNORER",
            "YES",
            "YES",
            null,
            "01-08-2019",
            "01-08-2019",
            null,
            null,
            null,
            null,
            null,
            null,
            "Y",
            "Y",
            "Y",
            "Y",
            "Y"
        ],
        [
            "XYZ",
            "ADQS",
            "XYZ-001-26",
            null,
            1,
            "Feel More Rested Than Usual",
            "MORRESTD",
            "DAILY QUESTIONNAIRE FOR SNORER",
            "NO",
            "NO",
            null,
            "01-08-2019",
            "01-08-2019",
            null,
            null,
            null,
            null,
            null,
            null,
            "Y",
            "Y",
            "Y",
            "Y",
            "Y"
        ],
        [
            "XYZ",
            "ADQS",
            "XYZ-001-26",
            null,
            1,
            "Feel Discomfort In Mouth Or Throat",
            "ORALDCMF",
            "DAILY QUESTIONNAIRE FOR SNORER",
            "YES",
            "YES",
            null,
            "01-08-2019",
            "01-08-2019",
            null,
            null,
            null,
            null,
            null,
            null,
            "Y",
            "Y",
            "Y",
            "Y",
            "Y"
        ],
        [
            "XYZ",
            "ADQS",
            "XYZ-001-26",
            null,
            1,
            "Had Difficulty Falling Or Staying Asleep",
            "DFSTSLP",
            "DAILY QUESTIONNAIRE FOR SNORER",
            "YES",
            "YES",
            null,
            "01-08-2019",
            "01-08-2019",
            null,
            null,
            null,
            null,
            null,
            null,
            "Y",
            "Y",
            "Y",
            "Y",
            "Y"
        ],
        [
            "XYZ",
            "ADQS",
            "XYZ-001-26",
            null,
            1,
            "Which Product Rated",
            "PRODUCT",
            "IMPRESSION INTERVIEW FOR SNORER",
            "Mute",
            "Mute",
            null,
            "01-18-2019",
            "01-18-2019",
            null,
            null,
            null,
            null,
            null,
            null,
            "Y",
            "Y",
            "Y",
            "Y",
            "Y"
        ],
        [
            "XYZ",
            "ADQS",
            "XYZ-001-26",
            null,
            1,
            "Rate Device Satisfaction 1 to 10",
            "SNRDVSTF",
            "IMPRESSION INTERVIEW FOR SNORER",
            2,
            "2",
            null,
            "01-18-2019",
            "01-18-2019",
            null,
            null,
            null,
            null,
            null,
            null,
            "Y",
            "Y",
            "Y",
            "Y",
            "Y"
        ],
        [
            "XYZ",
            "ADQS",
            "XYZ-001-26",
            null,
            1,
            "Rate Probability To Buy Device 1 to 10",
            "PROBBUY",
            "IMPRESSION INTERVIEW FOR SNORER",
            1,
            "1",
            null,
            "01-18-2019",
            "01-18-2019",
            null,
            null,
            null,
            null,
            null,
            null,
            "Y",
            "Y",
            "Y",
            "Y",
            "Y"
        ],
        [
            "XYZ",
            "ADQS",
            "XYZ-001-26",
            null,
            1,
            "Rate Probability To Recommend 1 to 10",
            "RECOMMND",
            "IMPRESSION INTERVIEW FOR SNORER",
            5,
            "5",
            null,
            "01-18-2019",
            "01-18-2019",
            null,
            null,
            null,
            null,
            null,
            null,
            "Y",
            "Y",
            "Y",
            "Y",
            "Y"
        ],
        [
            "XYZ",
            "ADQS",
            "XYZ-001-26",
            null,
            1,
            "Will Consider Any Product In Future",
            "PRODFUTR",
            "FOLLOW-UP QUESTIONNAIRE",
            "Yes",
            "Yes",
            null,
            "05-16-2019",
            "05-16-2019",
            null,
            null,
            null,
            null,
            null,
            null,
            "Y",
            "Y",
            "Y",
            "Y",
            "Y"
        ],
        [
            "XYZ",
            "ADQS",
            "XYZ-001-26",
            null,
            1,
            "If Continued To Use Describe Experience",
            "DSCUSEXP",
            "FOLLOW-UP QUESTIONNAIRE",
            "I didn\u2019t see any improvement with any of the devices. Unfortunately, they didn\u2019t work for me.",
            "I didn\u2019t see any improvement with any of the devices. Unfortunately, they didn\u2019t work for me.",
            null,
            "05-16-2019",
            "05-16-2019",
            null,
            null,
            null,
            null,
            null,
            null,
            "Y",
            "Y",
            "Y",
            "Y",
            "Y"
        ],
        [
            "XYZ",
            "ADQS",
            "XYZ-001-26",
            null,
            1,
            "Rate Study Experience 1 to 5",
            "RTSTDYXP",
            "FOLLOW-UP QUESTIONNAIRE",
            5,
            "5",
            null,
            "05-16-2019",
            "05-16-2019",
            null,
            null,
            null,
            null,
            null,
            null,
            "Y",
            "Y",
            "Y",
            "Y",
            "Y"
        ],
        [
            "XYZ",
            "ADQS",
            "XYZ-001-17",
            null,
            2,
            "Understand Participant Information Sheet",
            "UNDRINFO",
            "CONSENT FORM QUESTIONNAIRE",
            "YES",
            "YES",
            null,
            "01-08-2019",
            "01-08-2019",
            null,
            null,
            null,
            null,
            null,
            null,
            "Y",
            "Y",
            "Y",
            "Y",
            "Y"
        ],
        [
            "XYZ",
            "ADQS",
            "XYZ-001-17",
            null,
            2,
            "Had Sufficient Time To Consider",
            "SUFFTIME",
            "CONSENT FORM QUESTIONNAIRE",
            "YES",
            "YES",
            null,
            "01-08-2019",
            "01-08-2019",
            null,
            null,
            null,
            null,
            null,
            null,
            "Y",
            "Y",
            "Y",
            "Y",
            "Y"
        ],
        [
            "XYZ",
            "ADQS",
            "XYZ-001-17",
            null,
            2,
            "Could Get Assistance To Understand Trial",
            "ASSTUNDR",
            "CONSENT FORM QUESTIONNAIRE",
            "YES",
            "YES",
            null,
            "01-08-2019",
            "01-08-2019",
            null,
            null,
            null,
            null,
            null,
            null,
            "Y",
            "Y",
            "Y",
            "Y",
            "Y"
        ],
        [
            "XYZ",
            "ADQS",
            "XYZ-001-17",
            null,
            2,
            "Satisfied With Explanation Of Trial",
            "STSFEXPL",
            "CONSENT FORM QUESTIONNAIRE",
            "YES",
            "YES",
            null,
            "01-08-2019",
            "01-08-2019",
            null,
            null,
            null,
            null,
            null,
            null,
            "Y",
            "Y",
            "Y",
            "Y",
            "Y"
        ],
        [
            "XYZ",
            "ADQS",
            "XYZ-001-17",
            null,
            2,
            "Understand My Participation Is Voluntary",
            "PRTCPVOL",
            "CONSENT FORM QUESTIONNAIRE",
            "YES",
            "YES",
            null,
            "01-08-2019",
            "01-08-2019",
            null,
            null,
            null,
            null,
            null,
            null,
            "Y",
            "Y",
            "Y",
            "Y",
            "Y"
        ],
        [
            "XYZ",
            "ADQS",
            "XYZ-001-17",
            null,
            2,
            "Consent To Information Collection",
            "CONSINFC",
            "CONSENT FORM QUESTIONNAIRE",
            "YES",
            "YES",
            null,
            "01-08-2019",
            "01-08-2019",
            null,
            null,
            null,
            null,
            null,
            null,
            "Y",
            "Y",
            "Y",
            "Y",
            "Y"
        ],
        [
            "XYZ",
            "ADQS",
            "XYZ-001-17",
            null,
            2,
            "Assured About Data Confidentiality",
            "ASDTCONF",
            "CONSENT FORM QUESTIONNAIRE",
            "YES",
            "YES",
            null,
            "01-08-2019",
            "01-08-2019",
            null,
            null,
            null,
            null,
            null,
            null,
            "Y",
            "Y",
            "Y",
            "Y",
            "Y"
        ],
        [
            "XYZ",
            "ADQS",
            "XYZ-001-17",
            null,
            2,
            "Understand I Get Copy Of My Results",
            "COPYRES",
            "CONSENT FORM QUESTIONNAIRE",
            "YES",
            "YES",
            null,
            "01-08-2019",
            "01-08-2019",
            null,
            null,
            null,
            null,
            null,
            null,
            "Y",
            "Y",
            "Y",
            "Y",
            "Y"
        ],
        [
            "XYZ",
            "ADQS",
            "XYZ-001-17",
            null,
            2,
            "Understand No Expenses Or Financial Aid",
            "NOFINAID",
            "CONSENT FORM QUESTIONNAIRE",
            "YES",
            "YES",
            null,
            "01-08-2019",
            "01-08-2019",
            null,
            null,
            null,
            null,
            null,
            null,
            "Y",
            "Y",
            "Y",
            "Y",
            "Y"
        ],
        [
            "XYZ",
            "ADQS",
            "XYZ-001-17",
            null,
            2,
            "Understand I Can Withdraw At Any Time",
            "WITHDRTM",
            "CONSENT FORM QUESTIONNAIRE",
            "YES",
            "YES",
            null,
            "01-08-2019",
            "01-08-2019",
            null,
            null,
            null,
            null,
            null,
            null,
            "Y",
            "Y",
            "Y",
            "Y",
            "Y"
        ],
        [
            "XYZ",
            "ADQS",
            "XYZ-001-17",
            null,
            2,
            "Agree To Allow Data Use After Withdrawal",
            "ALLWDATA",
            "CONSENT FORM QUESTIONNAIRE",
            "YES",
            "YES",
            null,
            "01-08-2019",
            "01-08-2019",
            null,
            null,
            null,
            null,
            null,
            null,
            "Y",
            "Y",
            "Y",
            "Y",
            "Y"
        ],
        [
            "XYZ",
            "ADQS",
            "XYZ-001-17",
            null,
            2,
            "Have Contact Info For Questions",
            "CONTQUES",
            "CONSENT FORM QUESTIONNAIRE",
            "YES",
            "YES",
            null,
            "01-08-2019",
            "01-08-2019",
            null,
            null,
            null,
            null,
            null,
            null,
            "Y",
            "Y",
            "Y",
            "Y",
            "Y"
        ],
        [
            "XYZ",
            "ADQS",
            "XYZ-001-17",
            null,
            2,
            "Understand Participant Responsibilities",
            "UNDRRESP",
            "CONSENT FORM QUESTIONNAIRE",
            "YES",
            "YES",
            null,
            "01-08-2019",
            "01-08-2019",
            null,
            null,
            null,
            null,
            null,
            null,
            "Y",
            "Y",
            "Y",
            "Y",
            "Y"
        ],
        [
            "XYZ",
            "ADQS",
            "XYZ-001-17",
            null,
            2,
            "Waist Circumference Over Mark",
            "OBESITY",
            "OSA 50 SCREENING QUESTIONNAIRE",
            0,
            "0",
            null,
            null,
            null,
            null,
            null,
            null,
            null,
            null,
            null,
            "Y",
            "Y",
            "Y",
            "Y",
            "Y"
        ],
        [
            "XYZ",
            "ADQS",
            "XYZ-001-17",
            null,
            2,
            "Snoring Bothered Other People",
            "SNORER",
            "OSA 50 SCREENING QUESTIONNAIRE",
            0,
            "0",
            null,
            null,
            null,
            null,
            null,
            null,
            null,
            null,
            null,
            "Y",
            "Y",
            "Y",
            "Y",
            "Y"
        ],
        [
            "XYZ",
            "ADQS",
            "XYZ-001-17",
            null,
            2,
            "Told I Stop Breathing During Sleep",
            "APNEA",
            "OSA 50 SCREENING QUESTIONNAIRE",
            2,
            "2",
            null,
            null,
            null,
            null,
            null,
            null,
            null,
            null,
            null,
            "Y",
            "Y",
            "Y",
            "Y",
            "Y"
        ],
        [
            "XYZ",
            "ADQS",
            "XYZ-001-17",
            null,
            2,
            "Over 50 Years Old",
            "OVER50",
            "OSA 50 SCREENING QUESTIONNAIRE",
            0,
            "0",
            null,
            null,
            null,
            null,
            null,
            null,
            null,
            null,
            null,
            "Y",
            "Y",
            "Y",
            "Y",
            "Y"
        ],
        [
            "XYZ",
            "ADQS",
            "XYZ-001-17",
            null,
            2,
            "Total Score",
            "TOTSCORE",
            "OSA 50 SCREENING QUESTIONNAIRE",
            2,
            "2",
            null,
            null,
            null,
            null,
            null,
            null,
            null,
            null,
            null,
            "Y",
            "Y",
            "Y",
            "Y",
            "Y"
        ],
        [
            "XYZ",
            "ADQS",
            "XYZ-001-17",
            null,
            2,
            "Do You Snore Loudly",
            "LOUDSNOR",
            "STOP-BANG QUESTIONNAIRE",
            0,
            "0",
            null,
            null,
            null,
            null,
            null,
            null,
            null,
            null,
            null,
            "Y",
            "Y",
            "Y",
            "Y",
            "Y"
        ],
        [
            "XYZ",
            "ADQS",
            "XYZ-001-17",
            null,
            2,
            "Feel Tired Or Sleepy During Daytime",
            "DAYSLEEP",
            "STOP-BANG QUESTIONNAIRE",
            0,
            "0",
            null,
            null,
            null,
            null,
            null,
            null,
            null,
            null,
            null,
            "Y",
            "Y",
            "Y",
            "Y",
            "Y"
        ],
        [
            "XYZ",
            "ADQS",
            "XYZ-001-17",
            null,
            2,
            "Do You Stop Breathing During Sleep",
            "STOPBRTH",
            "STOP-BANG QUESTIONNAIRE",
            1,
            "1",
            null,
            null,
            null,
            null,
            null,
            null,
            null,
            null,
            null,
            "Y",
            "Y",
            "Y",
            "Y",
            "Y"
        ],
        [
            "XYZ",
            "ADQS",
            "XYZ-001-17",
            null,
            2,
            "Do You Have High Blood Pressure",
            "HIGHBP",
            "STOP-BANG QUESTIONNAIRE",
            0,
            "0",
            null,
            null,
            null,
            null,
            null,
            null,
            null,
            null,
            null,
            "Y",
            "Y",
            "Y",
            "Y",
            "Y"
        ],
        [
            "XYZ",
            "ADQS",
            "XYZ-001-17",
            null,
            2,
            "Subject BMI",
            "BMI",
            "STOP-BANG QUESTIONNAIRE",
            1,
            "1",
            null,
            null,
            null,
            null,
            null,
            null,
            null,
            null,
            null,
            "Y",
            "Y",
            "Y",
            "Y",
            "Y"
        ],
        [
            "XYZ",
            "ADQS",
            "XYZ-001-17",
            null,
            2,
            "Subject Age",
            "AGE",
            "STOP-BANG QUESTIONNAIRE",
            0,
            "0",
            null,
            null,
            null,
            null,
            null,
            null,
            null,
            null,
            null,
            "Y",
            "Y",
            "Y",
            "Y",
            "Y"
        ],
        [
            "XYZ",
            "ADQS",
            "XYZ-001-17",
            null,
            2,
            "Subject Neck Circumference",
            "NECKCIRC",
            "STOP-BANG QUESTIONNAIRE",
            1,
            "1",
            null,
            null,
            null,
            null,
            null,
            null,
            null,
            null,
            null,
            "Y",
            "Y",
            "Y",
            "Y",
            "Y"
        ],
        [
            "XYZ",
            "ADQS",
            "XYZ-001-17",
            null,
            2,
            "Subject Sex",
            "SEX",
            "STOP-BANG QUESTIONNAIRE",
            0,
            "0",
            null,
            null,
            null,
            null,
            null,
            null,
            null,
            null,
            null,
            "Y",
            "Y",
            "Y",
            "Y",
            "Y"
        ],
        [
            "XYZ",
            "ADQS",
            "XYZ-001-17",
            null,
            2,
            "Total STOP-BANG points",
            "TOTSCORE",
            "STOP-BANG QUESTIONNAIRE",
            3,
            "3",
            null,
            null,
            null,
            null,
            null,
            null,
            null,
            null,
            null,
            "Y",
            "Y",
            "Y",
            "Y",
            "Y"
        ],
        [
            "XYZ",
            "ADQS",
            "XYZ-001-17",
            null,
            2,
            "Risk Category",
            "RISKCAT",
            "STOP-BANG QUESTIONNAIRE",
            "Intermediate",
            "Intermediate",
            null,
            null,
            null,
            null,
            null,
            null,
            null,
            null,
            null,
            "Y",
            "Y",
            "Y",
            "Y",
            "Y"
        ],
        [
            "XYZ",
            "ADQS",
            "XYZ-001-17",
            null,
            2,
            "Average Snore Nights Per Week",
            "SNORNTWK",
            "SNORING PHENOTYPE QUESTIONNAIRE",
            "3-4 Nights",
            "3-4 Nights",
            null,
            "01-08-2019",
            "01-08-2019",
            null,
            null,
            null,
            null,
            null,
            null,
            "Y",
            "Y",
            "Y",
            "Y",
            "Y"
        ],
        [
            "XYZ",
            "ADQS",
            "XYZ-001-17",
            null,
            2,
            "Describe How Loudly You Snore",
            "SNORVOL",
            "SNORING PHENOTYPE QUESTIONNAIRE",
            "Moderate",
            "Moderate",
            null,
            "01-08-2019",
            "01-08-2019",
            null,
            null,
            null,
            null,
            null,
            null,
            "Y",
            "Y",
            "Y",
            "Y",
            "Y"
        ],
        [
            "XYZ",
            "ADQS",
            "XYZ-001-17",
            null,
            2,
            "Notice Sleeping Position Effect",
            "SNORPOS",
            "SNORING PHENOTYPE QUESTIONNAIRE",
            "Lying on back with arms straight down",
            "Lying on back with arms straight down",
            null,
            "01-08-2019",
            "01-08-2019",
            null,
            null,
            null,
            null,
            null,
            null,
            "Y",
            "Y",
            "Y",
            "Y",
            "Y"
        ],
        [
            "XYZ",
            "ADQS",
            "XYZ-001-17",
            null,
            2,
            "Snoring Regularly For How Long",
            "REGSNDUR",
            "SNORING PHENOTYPE QUESTIONNAIRE",
            "Less than 1 year",
            "Less than 1 year",
            null,
            "01-08-2019",
            "01-08-2019",
            null,
            null,
            null,
            null,
            null,
            null,
            "Y",
            "Y",
            "Y",
            "Y",
            "Y"
        ],
        [
            "XYZ",
            "ADQS",
            "XYZ-001-17",
            null,
            2,
            "Does Snoring Disrupt Sleep Quality",
            "SNSLPQUL",
            "SNORING PHENOTYPE QUESTIONNAIRE",
            "High Blood Pressure",
            "High Blood Pressure",
            null,
            "01-08-2019",
            "01-08-2019",
            null,
            null,
            null,
            null,
            null,
            null,
            "Y",
            "Y",
            "Y",
            "Y",
            "Y"
        ],
        [
            "XYZ",
            "ADQS",
            "XYZ-001-17",
            null,
            2,
            "Rate Last Night's Sleep Quality 1 to 10",
            "RATEQSLP",
            "DAILY QUESTIONNAIRE FOR SNORER",
            2,
            "2",
            null,
            "01-08-2019",
            "01-08-2019",
            null,
            null,
            null,
            null,
            null,
            null,
            "Y",
            "Y",
            "Y",
            "Y",
            "Y"
        ],
        [
            "XYZ",
            "ADQS",
            "XYZ-001-17",
            null,
            2,
            "Use Medical Device Last Night",
            "DEVUSE",
            "DAILY QUESTIONNAIRE FOR SNORER",
            "YES",
            "YES",
            null,
            "01-08-2019",
            "01-08-2019",
            null,
            null,
            null,
            null,
            null,
            null,
            "Y",
            "Y",
            "Y",
            "Y",
            "Y"
        ],
        [
            "XYZ",
            "ADQS",
            "XYZ-001-17",
            null,
            2,
            "Experience Discomfort With Device",
            "DEVCOMF",
            "DAILY QUESTIONNAIRE FOR SNORER",
            "YES",
            "YES",
            null,
            "01-08-2019",
            "01-08-2019",
            null,
            null,
            null,
            null,
            null,
            null,
            "Y",
            "Y",
            "Y",
            "Y",
            "Y"
        ],
        [
            "XYZ",
            "ADQS",
            "XYZ-001-17",
            null,
            2,
            "Feel More Rested Than Usual",
            "MORRESTD",
            "DAILY QUESTIONNAIRE FOR SNORER",
            "NO",
            "NO",
            null,
            "01-08-2019",
            "01-08-2019",
            null,
            null,
            null,
            null,
            null,
            null,
            "Y",
            "Y",
            "Y",
            "Y",
            "Y"
        ],
        [
            "XYZ",
            "ADQS",
            "XYZ-001-17",
            null,
            2,
            "Feel Discomfort In Mouth Or Throat",
            "ORALDCMF",
            "DAILY QUESTIONNAIRE FOR SNORER",
            "NO",
            "NO",
            null,
            "01-08-2019",
            "01-08-2019",
            null,
            null,
            null,
            null,
            null,
            null,
            "Y",
            "Y",
            "Y",
            "Y",
            "Y"
        ],
        [
            "XYZ",
            "ADQS",
            "XYZ-001-17",
            null,
            2,
            "Had Difficulty Falling Or Staying Asleep",
            "DFSTSLP",
            "DAILY QUESTIONNAIRE FOR SNORER",
            "YES",
            "YES",
            null,
            "01-08-2019",
            "01-08-2019",
            null,
            null,
            null,
            null,
            null,
            null,
            "Y",
            "Y",
            "Y",
            "Y",
            "Y"
        ],
        [
            "XYZ",
            "ADQS",
            "XYZ-001-17",
            null,
            2,
            "Which Product Rated",
            "PRODUCT",
            "IMPRESSION INTERVIEW FOR SNORER",
            "Mute",
            "Mute",
            null,
            "01-18-2019",
            "01-18-2019",
            null,
            null,
            null,
            null,
            null,
            null,
            "Y",
            "Y",
            "Y",
            "Y",
            "Y"
        ],
        [
            "XYZ",
            "ADQS",
            "XYZ-001-17",
            null,
            2,
            "Rate Device Satisfaction 1 to 10",
            "SNRDVSTF",
            "IMPRESSION INTERVIEW FOR SNORER",
            10,
            "10",
            null,
            "01-18-2019",
            "01-18-2019",
            null,
            null,
            null,
            null,
            null,
            null,
            "Y",
            "Y",
            "Y",
            "Y",
            "Y"
        ],
        [
            "XYZ",
            "ADQS",
            "XYZ-001-17",
            null,
            2,
            "Rate Probability To Buy Device 1 to 10",
            "PROBBUY",
            "IMPRESSION INTERVIEW FOR SNORER",
            7,
            "7",
            null,
            "01-18-2019",
            "01-18-2019",
            null,
            null,
            null,
            null,
            null,
            null,
            "Y",
            "Y",
            "Y",
            "Y",
            "Y"
        ],
        [
            "XYZ",
            "ADQS",
            "XYZ-001-17",
            null,
            2,
            "Rate Probability To Recommend 1 to 10",
            "RECOMMND",
            "IMPRESSION INTERVIEW FOR SNORER",
            1,
            "1",
            null,
            "01-18-2019",
            "01-18-2019",
            null,
            null,
            null,
            null,
            null,
            null,
            "Y",
            "Y",
            "Y",
            "Y",
            "Y"
        ],
        [
            "XYZ",
            "ADQS",
            "XYZ-001-17",
            null,
            2,
            "Will Consider Any Product In Future",
            "PRODFUTR",
            "FOLLOW-UP QUESTIONNAIRE",
            "Yes",
            "Yes",
            null,
            "05-16-2019",
            "05-16-2019",
            null,
            null,
            null,
            null,
            null,
            null,
            "Y",
            "Y",
            "Y",
            "Y",
            "Y"
        ],
        [
            "XYZ",
            "ADQS",
            "XYZ-001-17",
            null,
            2,
            "If Continued To Use Describe Experience",
            "DSCUSEXP",
            "FOLLOW-UP QUESTIONNAIRE",
            "Mute worked fine, but I didn\u2019t find a big improvement with the other two.",
            "Mute worked fine, but I didn\u2019t find a big improvement with the other two.",
            null,
            "05-16-2019",
            "05-16-2019",
            null,
            null,
            null,
            null,
            null,
            null,
            "Y",
            "Y",
            "Y",
            "Y",
            "Y"
        ],
        [
            "XYZ",
            "ADQS",
            "XYZ-001-17",
            null,
            2,
            "Rate Study Experience 1 to 5",
            "RTSTDYXP",
            "FOLLOW-UP QUESTIONNAIRE",
            6,
            "6",
            null,
            "05-16-2019",
            "05-16-2019",
            null,
            null,
            null,
            null,
            null,
            null,
            "Y",
            "Y",
            "Y",
            "Y",
            "Y"
        ],
        [
            "XYZ",
            "ADQS",
            "XYZ-001-14",
            null,
            3,
            "Understand Participant Information Sheet",
            "UNDRINFO",
            "CONSENT FORM QUESTIONNAIRE",
            "YES",
            "YES",
            null,
            "01-07-2019",
            "01-07-2019",
            null,
            null,
            null,
            null,
            null,
            null,
            "Y",
            "Y",
            "Y",
            "Y",
            "Y"
        ],
        [
            "XYZ",
            "ADQS",
            "XYZ-001-14",
            null,
            3,
            "Had Sufficient Time To Consider",
            "SUFFTIME",
            "CONSENT FORM QUESTIONNAIRE",
            "YES",
            "YES",
            null,
            "01-07-2019",
            "01-07-2019",
            null,
            null,
            null,
            null,
            null,
            null,
            "Y",
            "Y",
            "Y",
            "Y",
            "Y"
        ],
        [
            "XYZ",
            "ADQS",
            "XYZ-001-14",
            null,
            3,
            "Could Get Assistance To Understand Trial",
            "ASSTUNDR",
            "CONSENT FORM QUESTIONNAIRE",
            "YES",
            "YES",
            null,
            "01-07-2019",
            "01-07-2019",
            null,
            null,
            null,
            null,
            null,
            null,
            "Y",
            "Y",
            "Y",
            "Y",
            "Y"
        ],
        [
            "XYZ",
            "ADQS",
            "XYZ-001-14",
            null,
            3,
            "Satisfied With Explanation Of Trial",
            "STSFEXPL",
            "CONSENT FORM QUESTIONNAIRE",
            "YES",
            "YES",
            null,
            "01-07-2019",
            "01-07-2019",
            null,
            null,
            null,
            null,
            null,
            null,
            "Y",
            "Y",
            "Y",
            "Y",
            "Y"
        ],
        [
            "XYZ",
            "ADQS",
            "XYZ-001-14",
            null,
            3,
            "Understand My Participation Is Voluntary",
            "PRTCPVOL",
            "CONSENT FORM QUESTIONNAIRE",
            "YES",
            "YES",
            null,
            "01-07-2019",
            "01-07-2019",
            null,
            null,
            null,
            null,
            null,
            null,
            "Y",
            "Y",
            "Y",
            "Y",
            "Y"
        ],
        [
            "XYZ",
            "ADQS",
            "XYZ-001-14",
            null,
            3,
            "Consent To Information Collection",
            "CONSINFC",
            "CONSENT FORM QUESTIONNAIRE",
            "YES",
            "YES",
            null,
            "01-07-2019",
            "01-07-2019",
            null,
            null,
            null,
            null,
            null,
            null,
            "Y",
            "Y",
            "Y",
            "Y",
            "Y"
        ],
        [
            "XYZ",
            "ADQS",
            "XYZ-001-14",
            null,
            3,
            "Assured About Data Confidentiality",
            "ASDTCONF",
            "CONSENT FORM QUESTIONNAIRE",
            "YES",
            "YES",
            null,
            "01-07-2019",
            "01-07-2019",
            null,
            null,
            null,
            null,
            null,
            null,
            "Y",
            "Y",
            "Y",
            "Y",
            "Y"
        ],
        [
            "XYZ",
            "ADQS",
            "XYZ-001-14",
            null,
            3,
            "Understand I Get Copy Of My Results",
            "COPYRES",
            "CONSENT FORM QUESTIONNAIRE",
            "YES",
            "YES",
            null,
            "01-07-2019",
            "01-07-2019",
            null,
            null,
            null,
            null,
            null,
            null,
            "Y",
            "Y",
            "Y",
            "Y",
            "Y"
        ],
        [
            "XYZ",
            "ADQS",
            "XYZ-001-14",
            null,
            3,
            "Understand No Expenses Or Financial Aid",
            "NOFINAID",
            "CONSENT FORM QUESTIONNAIRE",
            "YES",
            "YES",
            null,
            "01-07-2019",
            "01-07-2019",
            null,
            null,
            null,
            null,
            null,
            null,
            "Y",
            "Y",
            "Y",
            "Y",
            "Y"
        ],
        [
            "XYZ",
            "ADQS",
            "XYZ-001-14",
            null,
            3,
            "Understand I Can Withdraw At Any Time",
            "WITHDRTM",
            "CONSENT FORM QUESTIONNAIRE",
            "YES",
            "YES",
            null,
            "01-07-2019",
            "01-07-2019",
            null,
            null,
            null,
            null,
            null,
            null,
            "Y",
            "Y",
            "Y",
            "Y",
            "Y"
        ],
        [
            "XYZ",
            "ADQS",
            "XYZ-001-14",
            null,
            3,
            "Agree To Allow Data Use After Withdrawal",
            "ALLWDATA",
            "CONSENT FORM QUESTIONNAIRE",
            "YES",
            "YES",
            null,
            "01-07-2019",
            "01-07-2019",
            null,
            null,
            null,
            null,
            null,
            null,
            "Y",
            "Y",
            "Y",
            "Y",
            "Y"
        ],
        [
            "XYZ",
            "ADQS",
            "XYZ-001-14",
            null,
            3,
            "Have Contact Info For Questions",
            "CONTQUES",
            "CONSENT FORM QUESTIONNAIRE",
            "YES",
            "YES",
            null,
            "01-07-2019",
            "01-07-2019",
            null,
            null,
            null,
            null,
            null,
            null,
            "Y",
            "Y",
            "Y",
            "Y",
            "Y"
        ],
        [
            "XYZ",
            "ADQS",
            "XYZ-001-14",
            null,
            3,
            "Understand Participant Responsibilities",
            "UNDRRESP",
            "CONSENT FORM QUESTIONNAIRE",
            "YES",
            "YES",
            null,
            "01-07-2019",
            "01-07-2019",
            null,
            null,
            null,
            null,
            null,
            null,
            "Y",
            "Y",
            "Y",
            "Y",
            "Y"
        ],
        [
            "XYZ",
            "ADQS",
            "XYZ-001-14",
            null,
            3,
            "Waist Circumference Over Mark",
            "OBESITY",
            "OSA 50 SCREENING QUESTIONNAIRE",
            0,
            "0",
            null,
            null,
            null,
            null,
            null,
            null,
            null,
            null,
            null,
            "Y",
            "Y",
            "Y",
            "Y",
            "Y"
        ],
        [
            "XYZ",
            "ADQS",
            "XYZ-001-14",
            null,
            3,
            "Snoring Bothered Other People",
            "SNORER",
            "OSA 50 SCREENING QUESTIONNAIRE",
            0,
            "0",
            null,
            null,
            null,
            null,
            null,
            null,
            null,
            null,
            null,
            "Y",
            "Y",
            "Y",
            "Y",
            "Y"
        ],
        [
            "XYZ",
            "ADQS",
            "XYZ-001-14",
            null,
            3,
            "Told I Stop Breathing During Sleep",
            "APNEA",
            "OSA 50 SCREENING QUESTIONNAIRE",
            2,
            "2",
            null,
            null,
            null,
            null,
            null,
            null,
            null,
            null,
            null,
            "Y",
            "Y",
            "Y",
            "Y",
            "Y"
        ],
        [
            "XYZ",
            "ADQS",
            "XYZ-001-14",
            null,
            3,
            "Over 50 Years Old",
            "OVER50",
            "OSA 50 SCREENING QUESTIONNAIRE",
            2,
            "2",
            null,
            null,
            null,
            null,
            null,
            null,
            null,
            null,
            null,
            "Y",
            "Y",
            "Y",
            "Y",
            "Y"
        ],
        [
            "XYZ",
            "ADQS",
            "XYZ-001-14",
            null,
            3,
            "Total Score",
            "TOTSCORE",
            "OSA 50 SCREENING QUESTIONNAIRE",
            4,
            "4",
            null,
            null,
            null,
            null,
            null,
            null,
            null,
            null,
            null,
            "Y",
            "Y",
            "Y",
            "Y",
            "Y"
        ],
        [
            "XYZ",
            "ADQS",
            "XYZ-001-14",
            null,
            3,
            "Do You Snore Loudly",
            "LOUDSNOR",
            "STOP-BANG QUESTIONNAIRE",
            0,
            "0",
            null,
            null,
            null,
            null,
            null,
            null,
            null,
            null,
            null,
            "Y",
            "Y",
            "Y",
            "Y",
            "Y"
        ],
        [
            "XYZ",
            "ADQS",
            "XYZ-001-14",
            null,
            3,
            "Feel Tired Or Sleepy During Daytime",
            "DAYSLEEP",
            "STOP-BANG QUESTIONNAIRE",
            0,
            "0",
            null,
            null,
            null,
            null,
            null,
            null,
            null,
            null,
            null,
            "Y",
            "Y",
            "Y",
            "Y",
            "Y"
        ],
        [
            "XYZ",
            "ADQS",
            "XYZ-001-14",
            null,
            3,
            "Do You Stop Breathing During Sleep",
            "STOPBRTH",
            "STOP-BANG QUESTIONNAIRE",
            0,
            "0",
            null,
            null,
            null,
            null,
            null,
            null,
            null,
            null,
            null,
            "Y",
            "Y",
            "Y",
            "Y",
            "Y"
        ],
        [
            "XYZ",
            "ADQS",
            "XYZ-001-14",
            null,
            3,
            "Do You Have High Blood Pressure",
            "HIGHBP",
            "STOP-BANG QUESTIONNAIRE",
            1,
            "1",
            null,
            null,
            null,
            null,
            null,
            null,
            null,
            null,
            null,
            "Y",
            "Y",
            "Y",
            "Y",
            "Y"
        ],
        [
            "XYZ",
            "ADQS",
            "XYZ-001-14",
            null,
            3,
            "Subject BMI",
            "BMI",
            "STOP-BANG QUESTIONNAIRE",
            0,
            "0",
            null,
            null,
            null,
            null,
            null,
            null,
            null,
            null,
            null,
            "Y",
            "Y",
            "Y",
            "Y",
            "Y"
        ],
        [
            "XYZ",
            "ADQS",
            "XYZ-001-14",
            null,
            3,
            "Subject Age",
            "AGE",
            "STOP-BANG QUESTIONNAIRE",
            1,
            "1",
            null,
            null,
            null,
            null,
            null,
            null,
            null,
            null,
            null,
            "Y",
            "Y",
            "Y",
            "Y",
            "Y"
        ],
        [
            "XYZ",
            "ADQS",
            "XYZ-001-14",
            null,
            3,
            "Subject Neck Circumference",
            "NECKCIRC",
            "STOP-BANG QUESTIONNAIRE",
            0,
            "0",
            null,
            null,
            null,
            null,
            null,
            null,
            null,
            null,
            null,
            "Y",
            "Y",
            "Y",
            "Y",
            "Y"
        ],
        [
            "XYZ",
            "ADQS",
            "XYZ-001-14",
            null,
            3,
            "Subject Sex",
            "SEX",
            "STOP-BANG QUESTIONNAIRE",
            0,
            "0",
            null,
            null,
            null,
            null,
            null,
            null,
            null,
            null,
            null,
            "Y",
            "Y",
            "Y",
            "Y",
            "Y"
        ],
        [
            "XYZ",
            "ADQS",
            "XYZ-001-14",
            null,
            3,
            "Total STOP-BANG points",
            "TOTSCORE",
            "STOP-BANG QUESTIONNAIRE",
            2,
            "2",
            null,
            null,
            null,
            null,
            null,
            null,
            null,
            null,
            null,
            "Y",
            "Y",
            "Y",
            "Y",
            "Y"
        ],
        [
            "XYZ",
            "ADQS",
            "XYZ-001-14",
            null,
            3,
            "Risk Category",
            "RISKCAT",
            "STOP-BANG QUESTIONNAIRE",
            "Low",
            "Low",
            null,
            null,
            null,
            null,
            null,
            null,
            null,
            null,
            null,
            "Y",
            "Y",
            "Y",
            "Y",
            "Y"
        ],
        [
            "XYZ",
            "ADQS",
            "XYZ-001-14",
            null,
            3,
            "Average Snore Nights Per Week",
            "SNORNTWK",
            "SNORING PHENOTYPE QUESTIONNAIRE",
            "Every Night",
            "Every Night",
            null,
            "01-07-2019",
            "01-07-2019",
            null,
            null,
            null,
            null,
            null,
            null,
            "Y",
            "Y",
            "Y",
            "Y",
            "Y"
        ],
        [
            "XYZ",
            "ADQS",
            "XYZ-001-14",
            null,
            3,
            "Describe How Loudly You Snore",
            "SNORVOL",
            "SNORING PHENOTYPE QUESTIONNAIRE",
            "Very Quiet",
            "Very Quiet",
            null,
            "01-07-2019",
            "01-07-2019",
            null,
            null,
            null,
            null,
            null,
            null,
            "Y",
            "Y",
            "Y",
            "Y",
            "Y"
        ],
        [
            "XYZ",
            "ADQS",
            "XYZ-001-14",
            null,
            3,
            "Notice Sleeping Position Effect",
            "SNORPOS",
            "SNORING PHENOTYPE QUESTIONNAIRE",
            null,
            null,
            null,
            "01-07-2019",
            "01-07-2019",
            null,
            null,
            null,
            null,
            null,
            null,
            "Y",
            "Y",
            "Y",
            "Y",
            "Y"
        ],
        [
            "XYZ",
            "ADQS",
            "XYZ-001-14",
            null,
            3,
            "Snoring Regularly For How Long",
            "REGSNDUR",
            "SNORING PHENOTYPE QUESTIONNAIRE",
            "Less than 1 year",
            "Less than 1 year",
            null,
            "01-07-2019",
            "01-07-2019",
            null,
            null,
            null,
            null,
            null,
            null,
            "Y",
            "Y",
            "Y",
            "Y",
            "Y"
        ],
        [
            "XYZ",
            "ADQS",
            "XYZ-001-14",
            null,
            3,
            "Does Snoring Disrupt Sleep Quality",
            "SNSLPQUL",
            "SNORING PHENOTYPE QUESTIONNAIRE",
            "Excessive Daytime Sleepiness",
            "Excessive Daytime Sleepiness",
            null,
            "01-07-2019",
            "01-07-2019",
            null,
            null,
            null,
            null,
            null,
            null,
            "Y",
            "Y",
            "Y",
            "Y",
            "Y"
        ],
        [
            "XYZ",
            "ADQS",
            "XYZ-001-14",
            null,
            3,
            "Rate Last Night's Sleep Quality 1 to 10",
            "RATEQSLP",
            "DAILY QUESTIONNAIRE FOR SNORER",
            1,
            "1",
            null,
            "01-07-2019",
            "01-07-2019",
            null,
            null,
            null,
            null,
            null,
            null,
            "Y",
            "Y",
            "Y",
            "Y",
            "Y"
        ],
        [
            "XYZ",
            "ADQS",
            "XYZ-001-14",
            null,
            3,
            "Use Medical Device Last Night",
            "DEVUSE",
            "DAILY QUESTIONNAIRE FOR SNORER",
            "YES",
            "YES",
            null,
            "01-07-2019",
            "01-07-2019",
            null,
            null,
            null,
            null,
            null,
            null,
            "Y",
            "Y",
            "Y",
            "Y",
            "Y"
        ],
        [
            "XYZ",
            "ADQS",
            "XYZ-001-14",
            null,
            3,
            "Experience Discomfort With Device",
            "DEVCOMF",
            "DAILY QUESTIONNAIRE FOR SNORER",
            "NO",
            "NO",
            null,
            "01-07-2019",
            "01-07-2019",
            null,
            null,
            null,
            null,
            null,
            null,
            "Y",
            "Y",
            "Y",
            "Y",
            "Y"
        ],
        [
            "XYZ",
            "ADQS",
            "XYZ-001-14",
            null,
            3,
            "Feel More Rested Than Usual",
            "MORRESTD",
            "DAILY QUESTIONNAIRE FOR SNORER",
            "YES",
            "YES",
            null,
            "01-07-2019",
            "01-07-2019",
            null,
            null,
            null,
            null,
            null,
            null,
            "Y",
            "Y",
            "Y",
            "Y",
            "Y"
        ],
        [
            "XYZ",
            "ADQS",
            "XYZ-001-14",
            null,
            3,
            "Feel Discomfort In Mouth Or Throat",
            "ORALDCMF",
            "DAILY QUESTIONNAIRE FOR SNORER",
            "YES",
            "YES",
            null,
            "01-07-2019",
            "01-07-2019",
            null,
            null,
            null,
            null,
            null,
            null,
            "Y",
            "Y",
            "Y",
            "Y",
            "Y"
        ],
        [
            "XYZ",
            "ADQS",
            "XYZ-001-14",
            null,
            3,
            "Had Difficulty Falling Or Staying Asleep",
            "DFSTSLP",
            "DAILY QUESTIONNAIRE FOR SNORER",
            "NO",
            "NO",
            null,
            "01-07-2019",
            "01-07-2019",
            null,
            null,
            null,
            null,
            null,
            null,
            "Y",
            "Y",
            "Y",
            "Y",
            "Y"
        ],
        [
            "XYZ",
            "ADQS",
            "XYZ-001-14",
            null,
            3,
            "Which Product Rated",
            "PRODUCT",
            "IMPRESSION INTERVIEW FOR SNORER",
            "Mute",
            "Mute",
            null,
            "01-17-2019",
            "01-17-2019",
            null,
            null,
            null,
            null,
            null,
            null,
            "Y",
            "Y",
            "Y",
            "Y",
            "Y"
        ],
        [
            "XYZ",
            "ADQS",
            "XYZ-001-14",
            null,
            3,
            "Rate Device Satisfaction 1 to 10",
            "SNRDVSTF",
            "IMPRESSION INTERVIEW FOR SNORER",
            1,
            "1",
            null,
            "01-17-2019",
            "01-17-2019",
            null,
            null,
            null,
            null,
            null,
            null,
            "Y",
            "Y",
            "Y",
            "Y",
            "Y"
        ],
        [
            "XYZ",
            "ADQS",
            "XYZ-001-14",
            null,
            3,
            "Rate Probability To Buy Device 1 to 10",
            "PROBBUY",
            "IMPRESSION INTERVIEW FOR SNORER",
            9,
            "9",
            null,
            "01-17-2019",
            "01-17-2019",
            null,
            null,
            null,
            null,
            null,
            null,
            "Y",
            "Y",
            "Y",
            "Y",
            "Y"
        ],
        [
            "XYZ",
            "ADQS",
            "XYZ-001-14",
            null,
            3,
            "Rate Probability To Recommend 1 to 10",
            "RECOMMND",
            "IMPRESSION INTERVIEW FOR SNORER",
            4,
            "4",
            null,
            "01-17-2019",
            "01-17-2019",
            null,
            null,
            null,
            null,
            null,
            null,
            "Y",
            "Y",
            "Y",
            "Y",
            "Y"
        ],
        [
            "XYZ",
            "ADQS",
            "XYZ-001-14",
            null,
            3,
            "Will Consider Any Product In Future",
            "PRODFUTR",
            "FOLLOW-UP QUESTIONNAIRE",
            "Yes",
            "Yes",
            null,
            "05-15-2019",
            "05-15-2019",
            null,
            null,
            null,
            null,
            null,
            null,
            "Y",
            "Y",
            "Y",
            "Y",
            "Y"
        ],
        [
            "XYZ",
            "ADQS",
            "XYZ-001-14",
            null,
            3,
            "If Continued To Use Describe Experience",
            "DSCUSEXP",
            "FOLLOW-UP QUESTIONNAIRE",
            "I loved using MyTAP V. It was comfortable and reduced my snoring noticeably.",
            "I loved using MyTAP V. It was comfortable and reduced my snoring noticeably.",
            null,
            "05-15-2019",
            "05-15-2019",
            null,
            null,
            null,
            null,
            null,
            null,
            "Y",
            "Y",
            "Y",
            "Y",
            "Y"
        ],
        [
            "XYZ",
            "ADQS",
            "XYZ-001-14",
            null,
            3,
            "Rate Study Experience 1 to 5",
            "RTSTDYXP",
            "FOLLOW-UP QUESTIONNAIRE",
            9,
            "9",
            null,
            "05-15-2019",
            "05-15-2019",
            null,
            null,
            null,
            null,
            null,
            null,
            "Y",
            "Y",
            "Y",
            "Y",
            "Y"
        ],
        [
            "XYZ",
            "ADQS",
            "XYZ-001-27",
            null,
            4,
            "Understand Participant Information Sheet",
            "UNDRINFO",
            "CONSENT FORM QUESTIONNAIRE",
            "YES",
            "YES",
            null,
            "01-02-2019",
            "01-02-2019",
            null,
            null,
            null,
            null,
            null,
            null,
            "Y",
            "Y",
            "Y",
            "Y",
            "Y"
        ],
        [
            "XYZ",
            "ADQS",
            "XYZ-001-27",
            null,
            4,
            "Had Sufficient Time To Consider",
            "SUFFTIME",
            "CONSENT FORM QUESTIONNAIRE",
            "YES",
            "YES",
            null,
            "01-02-2019",
            "01-02-2019",
            null,
            null,
            null,
            null,
            null,
            null,
            "Y",
            "Y",
            "Y",
            "Y",
            "Y"
        ],
        [
            "XYZ",
            "ADQS",
            "XYZ-001-27",
            null,
            4,
            "Could Get Assistance To Understand Trial",
            "ASSTUNDR",
            "CONSENT FORM QUESTIONNAIRE",
            "YES",
            "YES",
            null,
            "01-02-2019",
            "01-02-2019",
            null,
            null,
            null,
            null,
            null,
            null,
            "Y",
            "Y",
            "Y",
            "Y",
            "Y"
        ],
        [
            "XYZ",
            "ADQS",
            "XYZ-001-27",
            null,
            4,
            "Satisfied With Explanation Of Trial",
            "STSFEXPL",
            "CONSENT FORM QUESTIONNAIRE",
            "YES",
            "YES",
            null,
            "01-02-2019",
            "01-02-2019",
            null,
            null,
            null,
            null,
            null,
            null,
            "Y",
            "Y",
            "Y",
            "Y",
            "Y"
        ],
        [
            "XYZ",
            "ADQS",
            "XYZ-001-27",
            null,
            4,
            "Understand My Participation Is Voluntary",
            "PRTCPVOL",
            "CONSENT FORM QUESTIONNAIRE",
            "YES",
            "YES",
            null,
            "01-02-2019",
            "01-02-2019",
            null,
            null,
            null,
            null,
            null,
            null,
            "Y",
            "Y",
            "Y",
            "Y",
            "Y"
        ],
        [
            "XYZ",
            "ADQS",
            "XYZ-001-27",
            null,
            4,
            "Consent To Information Collection",
            "CONSINFC",
            "CONSENT FORM QUESTIONNAIRE",
            "YES",
            "YES",
            null,
            "01-02-2019",
            "01-02-2019",
            null,
            null,
            null,
            null,
            null,
            null,
            "Y",
            "Y",
            "Y",
            "Y",
            "Y"
        ],
        [
            "XYZ",
            "ADQS",
            "XYZ-001-27",
            null,
            4,
            "Assured About Data Confidentiality",
            "ASDTCONF",
            "CONSENT FORM QUESTIONNAIRE",
            "YES",
            "YES",
            null,
            "01-02-2019",
            "01-02-2019",
            null,
            null,
            null,
            null,
            null,
            null,
            "Y",
            "Y",
            "Y",
            "Y",
            "Y"
        ],
        [
            "XYZ",
            "ADQS",
            "XYZ-001-27",
            null,
            4,
            "Understand I Get Copy Of My Results",
            "COPYRES",
            "CONSENT FORM QUESTIONNAIRE",
            "YES",
            "YES",
            null,
            "01-02-2019",
            "01-02-2019",
            null,
            null,
            null,
            null,
            null,
            null,
            "Y",
            "Y",
            "Y",
            "Y",
            "Y"
        ],
        [
            "XYZ",
            "ADQS",
            "XYZ-001-27",
            null,
            4,
            "Understand No Expenses Or Financial Aid",
            "NOFINAID",
            "CONSENT FORM QUESTIONNAIRE",
            "YES",
            "YES",
            null,
            "01-02-2019",
            "01-02-2019",
            null,
            null,
            null,
            null,
            null,
            null,
            "Y",
            "Y",
            "Y",
            "Y",
            "Y"
        ],
        [
            "XYZ",
            "ADQS",
            "XYZ-001-27",
            null,
            4,
            "Understand I Can Withdraw At Any Time",
            "WITHDRTM",
            "CONSENT FORM QUESTIONNAIRE",
            "YES",
            "YES",
            null,
            "01-02-2019",
            "01-02-2019",
            null,
            null,
            null,
            null,
            null,
            null,
            "Y",
            "Y",
            "Y",
            "Y",
            "Y"
        ],
        [
            "XYZ",
            "ADQS",
            "XYZ-001-27",
            null,
            4,
            "Agree To Allow Data Use After Withdrawal",
            "ALLWDATA",
            "CONSENT FORM QUESTIONNAIRE",
            "YES",
            "YES",
            null,
            "01-02-2019",
            "01-02-2019",
            null,
            null,
            null,
            null,
            null,
            null,
            "Y",
            "Y",
            "Y",
            "Y",
            "Y"
        ],
        [
            "XYZ",
            "ADQS",
            "XYZ-001-27",
            null,
            4,
            "Have Contact Info For Questions",
            "CONTQUES",
            "CONSENT FORM QUESTIONNAIRE",
            "YES",
            "YES",
            null,
            "01-02-2019",
            "01-02-2019",
            null,
            null,
            null,
            null,
            null,
            null,
            "Y",
            "Y",
            "Y",
            "Y",
            "Y"
        ],
        [
            "XYZ",
            "ADQS",
            "XYZ-001-27",
            null,
            4,
            "Understand Participant Responsibilities",
            "UNDRRESP",
            "CONSENT FORM QUESTIONNAIRE",
            "YES",
            "YES",
            null,
            "01-02-2019",
            "01-02-2019",
            null,
            null,
            null,
            null,
            null,
            null,
            "Y",
            "Y",
            "Y",
            "Y",
            "Y"
        ],
        [
            "XYZ",
            "ADQS",
            "XYZ-001-27",
            null,
            4,
            "Waist Circumference Over Mark",
            "OBESITY",
            "OSA 50 SCREENING QUESTIONNAIRE",
            3,
            "3",
            null,
            null,
            null,
            null,
            null,
            null,
            null,
            null,
            null,
            "Y",
            "Y",
            "Y",
            "Y",
            "Y"
        ],
        [
            "XYZ",
            "ADQS",
            "XYZ-001-27",
            null,
            4,
            "Snoring Bothered Other People",
            "SNORER",
            "OSA 50 SCREENING QUESTIONNAIRE",
            0,
            "0",
            null,
            null,
            null,
            null,
            null,
            null,
            null,
            null,
            null,
            "Y",
            "Y",
            "Y",
            "Y",
            "Y"
        ],
        [
            "XYZ",
            "ADQS",
            "XYZ-001-27",
            null,
            4,
            "Told I Stop Breathing During Sleep",
            "APNEA",
            "OSA 50 SCREENING QUESTIONNAIRE",
            2,
            "2",
            null,
            null,
            null,
            null,
            null,
            null,
            null,
            null,
            null,
            "Y",
            "Y",
            "Y",
            "Y",
            "Y"
        ],
        [
            "XYZ",
            "ADQS",
            "XYZ-001-27",
            null,
            4,
            "Over 50 Years Old",
            "OVER50",
            "OSA 50 SCREENING QUESTIONNAIRE",
            0,
            "0",
            null,
            null,
            null,
            null,
            null,
            null,
            null,
            null,
            null,
            "Y",
            "Y",
            "Y",
            "Y",
            "Y"
        ],
        [
            "XYZ",
            "ADQS",
            "XYZ-001-27",
            null,
            4,
            "Total Score",
            "TOTSCORE",
            "OSA 50 SCREENING QUESTIONNAIRE",
            5,
            "5",
            null,
            null,
            null,
            null,
            null,
            null,
            null,
            null,
            null,
            "Y",
            "Y",
            "Y",
            "Y",
            "Y"
        ],
        [
            "XYZ",
            "ADQS",
            "XYZ-001-27",
            null,
            4,
            "Do You Snore Loudly",
            "LOUDSNOR",
            "STOP-BANG QUESTIONNAIRE",
            0,
            "0",
            null,
            null,
            null,
            null,
            null,
            null,
            null,
            null,
            null,
            "Y",
            "Y",
            "Y",
            "Y",
            "Y"
        ],
        [
            "XYZ",
            "ADQS",
            "XYZ-001-27",
            null,
            4,
            "Feel Tired Or Sleepy During Daytime",
            "DAYSLEEP",
            "STOP-BANG QUESTIONNAIRE",
            1,
            "1",
            null,
            null,
            null,
            null,
            null,
            null,
            null,
            null,
            null,
            "Y",
            "Y",
            "Y",
            "Y",
            "Y"
        ],
        [
            "XYZ",
            "ADQS",
            "XYZ-001-27",
            null,
            4,
            "Do You Stop Breathing During Sleep",
            "STOPBRTH",
            "STOP-BANG QUESTIONNAIRE",
            1,
            "1",
            null,
            null,
            null,
            null,
            null,
            null,
            null,
            null,
            null,
            "Y",
            "Y",
            "Y",
            "Y",
            "Y"
        ],
        [
            "XYZ",
            "ADQS",
            "XYZ-001-27",
            null,
            4,
            "Do You Have High Blood Pressure",
            "HIGHBP",
            "STOP-BANG QUESTIONNAIRE",
            0,
            "0",
            null,
            null,
            null,
            null,
            null,
            null,
            null,
            null,
            null,
            "Y",
            "Y",
            "Y",
            "Y",
            "Y"
        ],
        [
            "XYZ",
            "ADQS",
            "XYZ-001-27",
            null,
            4,
            "Subject BMI",
            "BMI",
            "STOP-BANG QUESTIONNAIRE",
            0,
            "0",
            null,
            null,
            null,
            null,
            null,
            null,
            null,
            null,
            null,
            "Y",
            "Y",
            "Y",
            "Y",
            "Y"
        ],
        [
            "XYZ",
            "ADQS",
            "XYZ-001-27",
            null,
            4,
            "Subject Age",
            "AGE",
            "STOP-BANG QUESTIONNAIRE",
            0,
            "0",
            null,
            null,
            null,
            null,
            null,
            null,
            null,
            null,
            null,
            "Y",
            "Y",
            "Y",
            "Y",
            "Y"
        ],
        [
            "XYZ",
            "ADQS",
            "XYZ-001-27",
            null,
            4,
            "Subject Neck Circumference",
            "NECKCIRC",
            "STOP-BANG QUESTIONNAIRE",
            0,
            "0",
            null,
            null,
            null,
            null,
            null,
            null,
            null,
            null,
            null,
            "Y",
            "Y",
            "Y",
            "Y",
            "Y"
        ],
        [
            "XYZ",
            "ADQS",
            "XYZ-001-27",
            null,
            4,
            "Subject Sex",
            "SEX",
            "STOP-BANG QUESTIONNAIRE",
            1,
            "1",
            null,
            null,
            null,
            null,
            null,
            null,
            null,
            null,
            null,
            "Y",
            "Y",
            "Y",
            "Y",
            "Y"
        ],
        [
            "XYZ",
            "ADQS",
            "XYZ-001-27",
            null,
            4,
            "Total STOP-BANG points",
            "TOTSCORE",
            "STOP-BANG QUESTIONNAIRE",
            3,
            "3",
            null,
            null,
            null,
            null,
            null,
            null,
            null,
            null,
            null,
            "Y",
            "Y",
            "Y",
            "Y",
            "Y"
        ],
        [
            "XYZ",
            "ADQS",
            "XYZ-001-27",
            null,
            4,
            "Risk Category",
            "RISKCAT",
            "STOP-BANG QUESTIONNAIRE",
            "Intermediate",
            "Intermediate",
            null,
            null,
            null,
            null,
            null,
            null,
            null,
            null,
            null,
            "Y",
            "Y",
            "Y",
            "Y",
            "Y"
        ],
        [
            "XYZ",
            "ADQS",
            "XYZ-001-27",
            null,
            4,
            "Average Snore Nights Per Week",
            "SNORNTWK",
            "SNORING PHENOTYPE QUESTIONNAIRE",
            "3-4 Nights",
            "3-4 Nights",
            null,
            "01-02-2019",
            "01-02-2019",
            null,
            null,
            null,
            null,
            null,
            null,
            "Y",
            "Y",
            "Y",
            "Y",
            "Y"
        ],
        [
            "XYZ",
            "ADQS",
            "XYZ-001-27",
            null,
            4,
            "Describe How Loudly You Snore",
            "SNORVOL",
            "SNORING PHENOTYPE QUESTIONNAIRE",
            "Moderate",
            "Moderate",
            null,
            "01-02-2019",
            "01-02-2019",
            null,
            null,
            null,
            null,
            null,
            null,
            "Y",
            "Y",
            "Y",
            "Y",
            "Y"
        ],
        [
            "XYZ",
            "ADQS",
            "XYZ-001-27",
            null,
            4,
            "Notice Sleeping Position Effect",
            "SNORPOS",
            "SNORING PHENOTYPE QUESTIONNAIRE",
            null,
            null,
            null,
            "01-02-2019",
            "01-02-2019",
            null,
            null,
            null,
            null,
            null,
            null,
            "Y",
            "Y",
            "Y",
            "Y",
            "Y"
        ],
        [
            "XYZ",
            "ADQS",
            "XYZ-001-27",
            null,
            4,
            "Snoring Regularly For How Long",
            "REGSNDUR",
            "SNORING PHENOTYPE QUESTIONNAIRE",
            "1-5 years",
            "1-5 years",
            null,
            "01-02-2019",
            "01-02-2019",
            null,
            null,
            null,
            null,
            null,
            null,
            "Y",
            "Y",
            "Y",
            "Y",
            "Y"
        ],
        [
            "XYZ",
            "ADQS",
            "XYZ-001-27",
            null,
            4,
            "Does Snoring Disrupt Sleep Quality",
            "SNSLPQUL",
            "SNORING PHENOTYPE QUESTIONNAIRE",
            "Behavioral issues",
            "Behavioral issues",
            null,
            "01-02-2019",
            "01-02-2019",
            null,
            null,
            null,
            null,
            null,
            null,
            "Y",
            "Y",
            "Y",
            "Y",
            "Y"
        ],
        [
            "XYZ",
            "ADQS",
            "XYZ-001-27",
            null,
            4,
            "Rate Last Night's Sleep Quality 1 to 10",
            "RATEQSLP",
            "DAILY QUESTIONNAIRE FOR SNORER",
            6,
            "6",
            null,
            "01-02-2019",
            "01-02-2019",
            null,
            null,
            null,
            null,
            null,
            null,
            "Y",
            "Y",
            "Y",
            "Y",
            "Y"
        ],
        [
            "XYZ",
            "ADQS",
            "XYZ-001-27",
            null,
            4,
            "Use Medical Device Last Night",
            "DEVUSE",
            "DAILY QUESTIONNAIRE FOR SNORER",
            "YES",
            "YES",
            null,
            "01-02-2019",
            "01-02-2019",
            null,
            null,
            null,
            null,
            null,
            null,
            "Y",
            "Y",
            "Y",
            "Y",
            "Y"
        ],
        [
            "XYZ",
            "ADQS",
            "XYZ-001-27",
            null,
            4,
            "Experience Discomfort With Device",
            "DEVCOMF",
            "DAILY QUESTIONNAIRE FOR SNORER",
            "YES",
            "YES",
            null,
            "01-02-2019",
            "01-02-2019",
            null,
            null,
            null,
            null,
            null,
            null,
            "Y",
            "Y",
            "Y",
            "Y",
            "Y"
        ],
        [
            "XYZ",
            "ADQS",
            "XYZ-001-27",
            null,
            4,
            "Feel More Rested Than Usual",
            "MORRESTD",
            "DAILY QUESTIONNAIRE FOR SNORER",
            "NO",
            "NO",
            null,
            "01-02-2019",
            "01-02-2019",
            null,
            null,
            null,
            null,
            null,
            null,
            "Y",
            "Y",
            "Y",
            "Y",
            "Y"
        ],
        [
            "XYZ",
            "ADQS",
            "XYZ-001-27",
            null,
            4,
            "Feel Discomfort In Mouth Or Throat",
            "ORALDCMF",
            "DAILY QUESTIONNAIRE FOR SNORER",
            "YES",
            "YES",
            null,
            "01-02-2019",
            "01-02-2019",
            null,
            null,
            null,
            null,
            null,
            null,
            "Y",
            "Y",
            "Y",
            "Y",
            "Y"
        ],
        [
            "XYZ",
            "ADQS",
            "XYZ-001-27",
            null,
            4,
            "Had Difficulty Falling Or Staying Asleep",
            "DFSTSLP",
            "DAILY QUESTIONNAIRE FOR SNORER",
            "NO",
            "NO",
            null,
            "01-02-2019",
            "01-02-2019",
            null,
            null,
            null,
            null,
            null,
            null,
            "Y",
            "Y",
            "Y",
            "Y",
            "Y"
        ],
        [
            "XYZ",
            "ADQS",
            "XYZ-001-27",
            null,
            4,
            "Which Product Rated",
            "PRODUCT",
            "IMPRESSION INTERVIEW FOR SNORER",
            "Mute",
            "Mute",
            null,
            "01-12-2019",
            "01-12-2019",
            null,
            null,
            null,
            null,
            null,
            null,
            "Y",
            "Y",
            "Y",
            "Y",
            "Y"
        ],
        [
            "XYZ",
            "ADQS",
            "XYZ-001-27",
            null,
            4,
            "Rate Device Satisfaction 1 to 10",
            "SNRDVSTF",
            "IMPRESSION INTERVIEW FOR SNORER",
            1,
            "1",
            null,
            "01-12-2019",
            "01-12-2019",
            null,
            null,
            null,
            null,
            null,
            null,
            "Y",
            "Y",
            "Y",
            "Y",
            "Y"
        ],
        [
            "XYZ",
            "ADQS",
            "XYZ-001-27",
            null,
            4,
            "Rate Probability To Buy Device 1 to 10",
            "PROBBUY",
            "IMPRESSION INTERVIEW FOR SNORER",
            3,
            "3",
            null,
            "01-12-2019",
            "01-12-2019",
            null,
            null,
            null,
            null,
            null,
            null,
            "Y",
            "Y",
            "Y",
            "Y",
            "Y"
        ],
        [
            "XYZ",
            "ADQS",
            "XYZ-001-27",
            null,
            4,
            "Rate Probability To Recommend 1 to 10",
            "RECOMMND",
            "IMPRESSION INTERVIEW FOR SNORER",
            7,
            "7",
            null,
            "01-12-2019",
            "01-12-2019",
            null,
            null,
            null,
            null,
            null,
            null,
            "Y",
            "Y",
            "Y",
            "Y",
            "Y"
        ],
        [
            "XYZ",
            "ADQS",
            "XYZ-001-27",
            null,
            4,
            "Will Consider Any Product In Future",
            "PRODFUTR",
            "FOLLOW-UP QUESTIONNAIRE",
            "Yes",
            "Yes",
            null,
            "05-10-2019",
            "05-10-2019",
            null,
            null,
            null,
            null,
            null,
            null,
            "Y",
            "Y",
            "Y",
            "Y",
            "Y"
        ],
        [
            "XYZ",
            "ADQS",
            "XYZ-001-27",
            null,
            4,
            "If Continued To Use Describe Experience",
            "DSCUSEXP",
            "FOLLOW-UP QUESTIONNAIRE",
            "I didn\u2019t see any improvement with any of the devices. Unfortunately, they didn\u2019t work for me.",
            "I didn\u2019t see any improvement with any of the devices. Unfortunately, they didn\u2019t work for me.",
            null,
            "05-10-2019",
            "05-10-2019",
            null,
            null,
            null,
            null,
            null,
            null,
            "Y",
            "Y",
            "Y",
            "Y",
            "Y"
        ],
        [
            "XYZ",
            "ADQS",
            "XYZ-001-27",
            null,
            4,
            "Rate Study Experience 1 to 5",
            "RTSTDYXP",
            "FOLLOW-UP QUESTIONNAIRE",
            8,
            "8",
            null,
            "05-10-2019",
            "05-10-2019",
            null,
            null,
            null,
            null,
            null,
            null,
            "Y",
            "Y",
            "Y",
            "Y",
            "Y"
        ],
        [
            "XYZ",
            "ADQS",
            "XYZ-001-13",
            null,
            5,
            "Understand Participant Information Sheet",
            "UNDRINFO",
            "CONSENT FORM QUESTIONNAIRE",
            "YES",
            "YES",
            null,
            "01-02-2019",
            "01-02-2019",
            null,
            null,
            null,
            null,
            null,
            null,
            "Y",
            "Y",
            "Y",
            "Y",
            "Y"
        ],
        [
            "XYZ",
            "ADQS",
            "XYZ-001-13",
            null,
            5,
            "Had Sufficient Time To Consider",
            "SUFFTIME",
            "CONSENT FORM QUESTIONNAIRE",
            "YES",
            "YES",
            null,
            "01-02-2019",
            "01-02-2019",
            null,
            null,
            null,
            null,
            null,
            null,
            "Y",
            "Y",
            "Y",
            "Y",
            "Y"
        ],
        [
            "XYZ",
            "ADQS",
            "XYZ-001-13",
            null,
            5,
            "Could Get Assistance To Understand Trial",
            "ASSTUNDR",
            "CONSENT FORM QUESTIONNAIRE",
            "YES",
            "YES",
            null,
            "01-02-2019",
            "01-02-2019",
            null,
            null,
            null,
            null,
            null,
            null,
            "Y",
            "Y",
            "Y",
            "Y",
            "Y"
        ],
        [
            "XYZ",
            "ADQS",
            "XYZ-001-13",
            null,
            5,
            "Satisfied With Explanation Of Trial",
            "STSFEXPL",
            "CONSENT FORM QUESTIONNAIRE",
            "YES",
            "YES",
            null,
            "01-02-2019",
            "01-02-2019",
            null,
            null,
            null,
            null,
            null,
            null,
            "Y",
            "Y",
            "Y",
            "Y",
            "Y"
        ],
        [
            "XYZ",
            "ADQS",
            "XYZ-001-13",
            null,
            5,
            "Understand My Participation Is Voluntary",
            "PRTCPVOL",
            "CONSENT FORM QUESTIONNAIRE",
            "YES",
            "YES",
            null,
            "01-02-2019",
            "01-02-2019",
            null,
            null,
            null,
            null,
            null,
            null,
            "Y",
            "Y",
            "Y",
            "Y",
            "Y"
        ],
        [
            "XYZ",
            "ADQS",
            "XYZ-001-13",
            null,
            5,
            "Consent To Information Collection",
            "CONSINFC",
            "CONSENT FORM QUESTIONNAIRE",
            "YES",
            "YES",
            null,
            "01-02-2019",
            "01-02-2019",
            null,
            null,
            null,
            null,
            null,
            null,
            "Y",
            "Y",
            "Y",
            "Y",
            "Y"
        ],
        [
            "XYZ",
            "ADQS",
            "XYZ-001-13",
            null,
            5,
            "Assured About Data Confidentiality",
            "ASDTCONF",
            "CONSENT FORM QUESTIONNAIRE",
            "YES",
            "YES",
            null,
            "01-02-2019",
            "01-02-2019",
            null,
            null,
            null,
            null,
            null,
            null,
            "Y",
            "Y",
            "Y",
            "Y",
            "Y"
        ],
        [
            "XYZ",
            "ADQS",
            "XYZ-001-13",
            null,
            5,
            "Understand I Get Copy Of My Results",
            "COPYRES",
            "CONSENT FORM QUESTIONNAIRE",
            "YES",
            "YES",
            null,
            "01-02-2019",
            "01-02-2019",
            null,
            null,
            null,
            null,
            null,
            null,
            "Y",
            "Y",
            "Y",
            "Y",
            "Y"
        ],
        [
            "XYZ",
            "ADQS",
            "XYZ-001-13",
            null,
            5,
            "Understand No Expenses Or Financial Aid",
            "NOFINAID",
            "CONSENT FORM QUESTIONNAIRE",
            "YES",
            "YES",
            null,
            "01-02-2019",
            "01-02-2019",
            null,
            null,
            null,
            null,
            null,
            null,
            "Y",
            "Y",
            "Y",
            "Y",
            "Y"
        ],
        [
            "XYZ",
            "ADQS",
            "XYZ-001-13",
            null,
            5,
            "Understand I Can Withdraw At Any Time",
            "WITHDRTM",
            "CONSENT FORM QUESTIONNAIRE",
            "YES",
            "YES",
            null,
            "01-02-2019",
            "01-02-2019",
            null,
            null,
            null,
            null,
            null,
            null,
            "Y",
            "Y",
            "Y",
            "Y",
            "Y"
        ],
        [
            "XYZ",
            "ADQS",
            "XYZ-001-13",
            null,
            5,
            "Agree To Allow Data Use After Withdrawal",
            "ALLWDATA",
            "CONSENT FORM QUESTIONNAIRE",
            "YES",
            "YES",
            null,
            "01-02-2019",
            "01-02-2019",
            null,
            null,
            null,
            null,
            null,
            null,
            "Y",
            "Y",
            "Y",
            "Y",
            "Y"
        ],
        [
            "XYZ",
            "ADQS",
            "XYZ-001-13",
            null,
            5,
            "Have Contact Info For Questions",
            "CONTQUES",
            "CONSENT FORM QUESTIONNAIRE",
            "YES",
            "YES",
            null,
            "01-02-2019",
            "01-02-2019",
            null,
            null,
            null,
            null,
            null,
            null,
            "Y",
            "Y",
            "Y",
            "Y",
            "Y"
        ],
        [
            "XYZ",
            "ADQS",
            "XYZ-001-13",
            null,
            5,
            "Understand Participant Responsibilities",
            "UNDRRESP",
            "CONSENT FORM QUESTIONNAIRE",
            "YES",
            "YES",
            null,
            "01-02-2019",
            "01-02-2019",
            null,
            null,
            null,
            null,
            null,
            null,
            "Y",
            "Y",
            "Y",
            "Y",
            "Y"
        ],
        [
            "XYZ",
            "ADQS",
            "XYZ-001-13",
            null,
            5,
            "Waist Circumference Over Mark",
            "OBESITY",
            "OSA 50 SCREENING QUESTIONNAIRE",
            0,
            "0",
            null,
            null,
            null,
            null,
            null,
            null,
            null,
            null,
            null,
            "Y",
            "Y",
            "Y",
            "Y",
            "Y"
        ],
        [
            "XYZ",
            "ADQS",
            "XYZ-001-13",
            null,
            5,
            "Snoring Bothered Other People",
            "SNORER",
            "OSA 50 SCREENING QUESTIONNAIRE",
            0,
            "0",
            null,
            null,
            null,
            null,
            null,
            null,
            null,
            null,
            null,
            "Y",
            "Y",
            "Y",
            "Y",
            "Y"
        ],
        [
            "XYZ",
            "ADQS",
            "XYZ-001-13",
            null,
            5,
            "Told I Stop Breathing During Sleep",
            "APNEA",
            "OSA 50 SCREENING QUESTIONNAIRE",
            0,
            "0",
            null,
            null,
            null,
            null,
            null,
            null,
            null,
            null,
            null,
            "Y",
            "Y",
            "Y",
            "Y",
            "Y"
        ],
        [
            "XYZ",
            "ADQS",
            "XYZ-001-13",
            null,
            5,
            "Over 50 Years Old",
            "OVER50",
            "OSA 50 SCREENING QUESTIONNAIRE",
            2,
            "2",
            null,
            null,
            null,
            null,
            null,
            null,
            null,
            null,
            null,
            "Y",
            "Y",
            "Y",
            "Y",
            "Y"
        ],
        [
            "XYZ",
            "ADQS",
            "XYZ-001-13",
            null,
            5,
            "Total Score",
            "TOTSCORE",
            "OSA 50 SCREENING QUESTIONNAIRE",
            2,
            "2",
            null,
            null,
            null,
            null,
            null,
            null,
            null,
            null,
            null,
            "Y",
            "Y",
            "Y",
            "Y",
            "Y"
        ],
        [
            "XYZ",
            "ADQS",
            "XYZ-001-13",
            null,
            5,
            "Do You Snore Loudly",
            "LOUDSNOR",
            "STOP-BANG QUESTIONNAIRE",
            0,
            "0",
            null,
            null,
            null,
            null,
            null,
            null,
            null,
            null,
            null,
            "Y",
            "Y",
            "Y",
            "Y",
            "Y"
        ],
        [
            "XYZ",
            "ADQS",
            "XYZ-001-13",
            null,
            5,
            "Feel Tired Or Sleepy During Daytime",
            "DAYSLEEP",
            "STOP-BANG QUESTIONNAIRE",
            1,
            "1",
            null,
            null,
            null,
            null,
            null,
            null,
            null,
            null,
            null,
            "Y",
            "Y",
            "Y",
            "Y",
            "Y"
        ],
        [
            "XYZ",
            "ADQS",
            "XYZ-001-13",
            null,
            5,
            "Do You Stop Breathing During Sleep",
            "STOPBRTH",
            "STOP-BANG QUESTIONNAIRE",
            0,
            "0",
            null,
            null,
            null,
            null,
            null,
            null,
            null,
            null,
            null,
            "Y",
            "Y",
            "Y",
            "Y",
            "Y"
        ],
        [
            "XYZ",
            "ADQS",
            "XYZ-001-13",
            null,
            5,
            "Do You Have High Blood Pressure",
            "HIGHBP",
            "STOP-BANG QUESTIONNAIRE",
            0,
            "0",
            null,
            null,
            null,
            null,
            null,
            null,
            null,
            null,
            null,
            "Y",
            "Y",
            "Y",
            "Y",
            "Y"
        ],
        [
            "XYZ",
            "ADQS",
            "XYZ-001-13",
            null,
            5,
            "Subject BMI",
            "BMI",
            "STOP-BANG QUESTIONNAIRE",
            0,
            "0",
            null,
            null,
            null,
            null,
            null,
            null,
            null,
            null,
            null,
            "Y",
            "Y",
            "Y",
            "Y",
            "Y"
        ],
        [
            "XYZ",
            "ADQS",
            "XYZ-001-13",
            null,
            5,
            "Subject Age",
            "AGE",
            "STOP-BANG QUESTIONNAIRE",
            1,
            "1",
            null,
            null,
            null,
            null,
            null,
            null,
            null,
            null,
            null,
            "Y",
            "Y",
            "Y",
            "Y",
            "Y"
        ],
        [
            "XYZ",
            "ADQS",
            "XYZ-001-13",
            null,
            5,
            "Subject Neck Circumference",
            "NECKCIRC",
            "STOP-BANG QUESTIONNAIRE",
            0,
            "0",
            null,
            null,
            null,
            null,
            null,
            null,
            null,
            null,
            null,
            "Y",
            "Y",
            "Y",
            "Y",
            "Y"
        ],
        [
            "XYZ",
            "ADQS",
            "XYZ-001-13",
            null,
            5,
            "Subject Sex",
            "SEX",
            "STOP-BANG QUESTIONNAIRE",
            1,
            "1",
            null,
            null,
            null,
            null,
            null,
            null,
            null,
            null,
            null,
            "Y",
            "Y",
            "Y",
            "Y",
            "Y"
        ],
        [
            "XYZ",
            "ADQS",
            "XYZ-001-13",
            null,
            5,
            "Total STOP-BANG points",
            "TOTSCORE",
            "STOP-BANG QUESTIONNAIRE",
            3,
            "3",
            null,
            null,
            null,
            null,
            null,
            null,
            null,
            null,
            null,
            "Y",
            "Y",
            "Y",
            "Y",
            "Y"
        ],
        [
            "XYZ",
            "ADQS",
            "XYZ-001-13",
            null,
            5,
            "Risk Category",
            "RISKCAT",
            "STOP-BANG QUESTIONNAIRE",
            "Intermediate",
            "Intermediate",
            null,
            null,
            null,
            null,
            null,
            null,
            null,
            null,
            null,
            "Y",
            "Y",
            "Y",
            "Y",
            "Y"
        ],
        [
            "XYZ",
            "ADQS",
            "XYZ-001-13",
            null,
            5,
            "Average Snore Nights Per Week",
            "SNORNTWK",
            "SNORING PHENOTYPE QUESTIONNAIRE",
            "Every Night",
            "Every Night",
            null,
            "01-02-2019",
            "01-02-2019",
            null,
            null,
            null,
            null,
            null,
            null,
            "Y",
            "Y",
            "Y",
            "Y",
            "Y"
        ],
        [
            "XYZ",
            "ADQS",
            "XYZ-001-13",
            null,
            5,
            "Describe How Loudly You Snore",
            "SNORVOL",
            "SNORING PHENOTYPE QUESTIONNAIRE",
            "Very Quiet",
            "Very Quiet",
            null,
            "01-02-2019",
            "01-02-2019",
            null,
            null,
            null,
            null,
            null,
            null,
            "Y",
            "Y",
            "Y",
            "Y",
            "Y"
        ],
        [
            "XYZ",
            "ADQS",
            "XYZ-001-13",
            null,
            5,
            "Notice Sleeping Position Effect",
            "SNORPOS",
            "SNORING PHENOTYPE QUESTIONNAIRE",
            "Lying on stomach with hands around pillow and head turned",
            "Lying on stomach with hands around pillow and head turned",
            null,
            "01-02-2019",
            "01-02-2019",
            null,
            null,
            null,
            null,
            null,
            null,
            "Y",
            "Y",
            "Y",
            "Y",
            "Y"
        ],
        [
            "XYZ",
            "ADQS",
            "XYZ-001-13",
            null,
            5,
            "Snoring Regularly For How Long",
            "REGSNDUR",
            "SNORING PHENOTYPE QUESTIONNAIRE",
            "5-10 years",
            "5-10 years",
            null,
            "01-02-2019",
            "01-02-2019",
            null,
            null,
            null,
            null,
            null,
            null,
            "Y",
            "Y",
            "Y",
            "Y",
            "Y"
        ],
        [
            "XYZ",
            "ADQS",
            "XYZ-001-13",
            null,
            5,
            "Does Snoring Disrupt Sleep Quality",
            "SNSLPQUL",
            "SNORING PHENOTYPE QUESTIONNAIRE",
            null,
            null,
            null,
            "01-02-2019",
            "01-02-2019",
            null,
            null,
            null,
            null,
            null,
            null,
            "Y",
            "Y",
            "Y",
            "Y",
            "Y"
        ],
        [
            "XYZ",
            "ADQS",
            "XYZ-001-13",
            null,
            5,
            "Rate Last Night's Sleep Quality 1 to 10",
            "RATEQSLP",
            "DAILY QUESTIONNAIRE FOR SNORER",
            8,
            "8",
            null,
            "01-02-2019",
            "01-02-2019",
            null,
            null,
            null,
            null,
            null,
            null,
            "Y",
            "Y",
            "Y",
            "Y",
            "Y"
        ],
        [
            "XYZ",
            "ADQS",
            "XYZ-001-13",
            null,
            5,
            "Use Medical Device Last Night",
            "DEVUSE",
            "DAILY QUESTIONNAIRE FOR SNORER",
            "YES",
            "YES",
            null,
            "01-02-2019",
            "01-02-2019",
            null,
            null,
            null,
            null,
            null,
            null,
            "Y",
            "Y",
            "Y",
            "Y",
            "Y"
        ],
        [
            "XYZ",
            "ADQS",
            "XYZ-001-13",
            null,
            5,
            "Experience Discomfort With Device",
            "DEVCOMF",
            "DAILY QUESTIONNAIRE FOR SNORER",
            "YES",
            "YES",
            null,
            "01-02-2019",
            "01-02-2019",
            null,
            null,
            null,
            null,
            null,
            null,
            "Y",
            "Y",
            "Y",
            "Y",
            "Y"
        ],
        [
            "XYZ",
            "ADQS",
            "XYZ-001-13",
            null,
            5,
            "Feel More Rested Than Usual",
            "MORRESTD",
            "DAILY QUESTIONNAIRE FOR SNORER",
            "NO",
            "NO",
            null,
            "01-02-2019",
            "01-02-2019",
            null,
            null,
            null,
            null,
            null,
            null,
            "Y",
            "Y",
            "Y",
            "Y",
            "Y"
        ],
        [
            "XYZ",
            "ADQS",
            "XYZ-001-13",
            null,
            5,
            "Feel Discomfort In Mouth Or Throat",
            "ORALDCMF",
            "DAILY QUESTIONNAIRE FOR SNORER",
            "NO",
            "NO",
            null,
            "01-02-2019",
            "01-02-2019",
            null,
            null,
            null,
            null,
            null,
            null,
            "Y",
            "Y",
            "Y",
            "Y",
            "Y"
        ],
        [
            "XYZ",
            "ADQS",
            "XYZ-001-13",
            null,
            5,
            "Had Difficulty Falling Or Staying Asleep",
            "DFSTSLP",
            "DAILY QUESTIONNAIRE FOR SNORER",
            "NO",
            "NO",
            null,
            "01-02-2019",
            "01-02-2019",
            null,
            null,
            null,
            null,
            null,
            null,
            "Y",
            "Y",
            "Y",
            "Y",
            "Y"
        ],
        [
            "XYZ",
            "ADQS",
            "XYZ-001-13",
            null,
            5,
            "Which Product Rated",
            "PRODUCT",
            "IMPRESSION INTERVIEW FOR SNORER",
            "MyTAP V",
            "MyTAP V",
            null,
            "01-26-2019",
            "01-26-2019",
            null,
            null,
            null,
            null,
            null,
            null,
            "Y",
            "Y",
            "Y",
            "Y",
            "Y"
        ],
        [
            "XYZ",
            "ADQS",
            "XYZ-001-13",
            null,
            5,
            "Rate Device Satisfaction 1 to 10",
            "SNRDVSTF",
            "IMPRESSION INTERVIEW FOR SNORER",
            6,
            "6",
            null,
            "01-26-2019",
            "01-26-2019",
            null,
            null,
            null,
            null,
            null,
            null,
            "Y",
            "Y",
            "Y",
            "Y",
            "Y"
        ],
        [
            "XYZ",
            "ADQS",
            "XYZ-001-13",
            null,
            5,
            "Rate Probability To Buy Device 1 to 10",
            "PROBBUY",
            "IMPRESSION INTERVIEW FOR SNORER",
            6,
            "6",
            null,
            "01-26-2019",
            "01-26-2019",
            null,
            null,
            null,
            null,
            null,
            null,
            "Y",
            "Y",
            "Y",
            "Y",
            "Y"
        ],
        [
            "XYZ",
            "ADQS",
            "XYZ-001-13",
            null,
            5,
            "Rate Probability To Recommend 1 to 10",
            "RECOMMND",
            "IMPRESSION INTERVIEW FOR SNORER",
            10,
            "10",
            null,
            "01-26-2019",
            "01-26-2019",
            null,
            null,
            null,
            null,
            null,
            null,
            "Y",
            "Y",
            "Y",
            "Y",
            "Y"
        ],
        [
            "XYZ",
            "ADQS",
            "XYZ-001-13",
            null,
            5,
            "Will Consider Any Product In Future",
            "PRODFUTR",
            "FOLLOW-UP QUESTIONNAIRE",
            "Yes",
            "Yes",
            null,
            "05-10-2019",
            "05-10-2019",
            null,
            null,
            null,
            null,
            null,
            null,
            "Y",
            "Y",
            "Y",
            "Y",
            "Y"
        ],
        [
            "XYZ",
            "ADQS",
            "XYZ-001-13",
            null,
            5,
            "If Continued To Use Describe Experience",
            "DSCUSEXP",
            "FOLLOW-UP QUESTIONNAIRE",
            "The Mute device has really helped me with snoring, and MyTAP V was comfortable. Overall, very satisfied.",
            "The Mute device has really helped me with snoring, and MyTAP V was comfortable. Overall, very satisfied.",
            null,
            "05-10-2019",
            "05-10-2019",
            null,
            null,
            null,
            null,
            null,
            null,
            "Y",
            "Y",
            "Y",
            "Y",
            "Y"
        ],
        [
            "XYZ",
            "ADQS",
            "XYZ-001-13",
            null,
            5,
            "Rate Study Experience 1 to 5",
            "RTSTDYXP",
            "FOLLOW-UP QUESTIONNAIRE",
            9,
            "9",
            null,
            "05-10-2019",
            "05-10-2019",
            null,
            null,
            null,
            null,
            null,
            null,
            "Y",
            "Y",
            "Y",
            "Y",
            "Y"
        ],
        [
            "XYZ",
            "ADQS",
            "XYZ-001-12",
            null,
            6,
            "Understand Participant Information Sheet",
            "UNDRINFO",
            "CONSENT FORM QUESTIONNAIRE",
            "YES",
            "YES",
            null,
            "01-10-2019",
            "01-10-2019",
            null,
            null,
            null,
            null,
            null,
            null,
            "Y",
            "Y",
            "Y",
            "Y",
            "Y"
        ],
        [
            "XYZ",
            "ADQS",
            "XYZ-001-12",
            null,
            6,
            "Had Sufficient Time To Consider",
            "SUFFTIME",
            "CONSENT FORM QUESTIONNAIRE",
            "YES",
            "YES",
            null,
            "01-10-2019",
            "01-10-2019",
            null,
            null,
            null,
            null,
            null,
            null,
            "Y",
            "Y",
            "Y",
            "Y",
            "Y"
        ],
        [
            "XYZ",
            "ADQS",
            "XYZ-001-12",
            null,
            6,
            "Could Get Assistance To Understand Trial",
            "ASSTUNDR",
            "CONSENT FORM QUESTIONNAIRE",
            "YES",
            "YES",
            null,
            "01-10-2019",
            "01-10-2019",
            null,
            null,
            null,
            null,
            null,
            null,
            "Y",
            "Y",
            "Y",
            "Y",
            "Y"
        ],
        [
            "XYZ",
            "ADQS",
            "XYZ-001-12",
            null,
            6,
            "Satisfied With Explanation Of Trial",
            "STSFEXPL",
            "CONSENT FORM QUESTIONNAIRE",
            "YES",
            "YES",
            null,
            "01-10-2019",
            "01-10-2019",
            null,
            null,
            null,
            null,
            null,
            null,
            "Y",
            "Y",
            "Y",
            "Y",
            "Y"
        ],
        [
            "XYZ",
            "ADQS",
            "XYZ-001-12",
            null,
            6,
            "Understand My Participation Is Voluntary",
            "PRTCPVOL",
            "CONSENT FORM QUESTIONNAIRE",
            "YES",
            "YES",
            null,
            "01-10-2019",
            "01-10-2019",
            null,
            null,
            null,
            null,
            null,
            null,
            "Y",
            "Y",
            "Y",
            "Y",
            "Y"
        ],
        [
            "XYZ",
            "ADQS",
            "XYZ-001-12",
            null,
            6,
            "Consent To Information Collection",
            "CONSINFC",
            "CONSENT FORM QUESTIONNAIRE",
            "YES",
            "YES",
            null,
            "01-10-2019",
            "01-10-2019",
            null,
            null,
            null,
            null,
            null,
            null,
            "Y",
            "Y",
            "Y",
            "Y",
            "Y"
        ],
        [
            "XYZ",
            "ADQS",
            "XYZ-001-12",
            null,
            6,
            "Assured About Data Confidentiality",
            "ASDTCONF",
            "CONSENT FORM QUESTIONNAIRE",
            "YES",
            "YES",
            null,
            "01-10-2019",
            "01-10-2019",
            null,
            null,
            null,
            null,
            null,
            null,
            "Y",
            "Y",
            "Y",
            "Y",
            "Y"
        ],
        [
            "XYZ",
            "ADQS",
            "XYZ-001-12",
            null,
            6,
            "Understand I Get Copy Of My Results",
            "COPYRES",
            "CONSENT FORM QUESTIONNAIRE",
            "YES",
            "YES",
            null,
            "01-10-2019",
            "01-10-2019",
            null,
            null,
            null,
            null,
            null,
            null,
            "Y",
            "Y",
            "Y",
            "Y",
            "Y"
        ],
        [
            "XYZ",
            "ADQS",
            "XYZ-001-12",
            null,
            6,
            "Understand No Expenses Or Financial Aid",
            "NOFINAID",
            "CONSENT FORM QUESTIONNAIRE",
            "YES",
            "YES",
            null,
            "01-10-2019",
            "01-10-2019",
            null,
            null,
            null,
            null,
            null,
            null,
            "Y",
            "Y",
            "Y",
            "Y",
            "Y"
        ],
        [
            "XYZ",
            "ADQS",
            "XYZ-001-12",
            null,
            6,
            "Understand I Can Withdraw At Any Time",
            "WITHDRTM",
            "CONSENT FORM QUESTIONNAIRE",
            "YES",
            "YES",
            null,
            "01-10-2019",
            "01-10-2019",
            null,
            null,
            null,
            null,
            null,
            null,
            "Y",
            "Y",
            "Y",
            "Y",
            "Y"
        ],
        [
            "XYZ",
            "ADQS",
            "XYZ-001-12",
            null,
            6,
            "Agree To Allow Data Use After Withdrawal",
            "ALLWDATA",
            "CONSENT FORM QUESTIONNAIRE",
            "YES",
            "YES",
            null,
            "01-10-2019",
            "01-10-2019",
            null,
            null,
            null,
            null,
            null,
            null,
            "Y",
            "Y",
            "Y",
            "Y",
            "Y"
        ],
        [
            "XYZ",
            "ADQS",
            "XYZ-001-12",
            null,
            6,
            "Have Contact Info For Questions",
            "CONTQUES",
            "CONSENT FORM QUESTIONNAIRE",
            "YES",
            "YES",
            null,
            "01-10-2019",
            "01-10-2019",
            null,
            null,
            null,
            null,
            null,
            null,
            "Y",
            "Y",
            "Y",
            "Y",
            "Y"
        ],
        [
            "XYZ",
            "ADQS",
            "XYZ-001-12",
            null,
            6,
            "Understand Participant Responsibilities",
            "UNDRRESP",
            "CONSENT FORM QUESTIONNAIRE",
            "YES",
            "YES",
            null,
            "01-10-2019",
            "01-10-2019",
            null,
            null,
            null,
            null,
            null,
            null,
            "Y",
            "Y",
            "Y",
            "Y",
            "Y"
        ],
        [
            "XYZ",
            "ADQS",
            "XYZ-001-12",
            null,
            6,
            "Waist Circumference Over Mark",
            "OBESITY",
            "OSA 50 SCREENING QUESTIONNAIRE",
            0,
            "0",
            null,
            null,
            null,
            null,
            null,
            null,
            null,
            null,
            null,
            "Y",
            "Y",
            "Y",
            "Y",
            "Y"
        ],
        [
            "XYZ",
            "ADQS",
            "XYZ-001-12",
            null,
            6,
            "Snoring Bothered Other People",
            "SNORER",
            "OSA 50 SCREENING QUESTIONNAIRE",
            0,
            "0",
            null,
            null,
            null,
            null,
            null,
            null,
            null,
            null,
            null,
            "Y",
            "Y",
            "Y",
            "Y",
            "Y"
        ],
        [
            "XYZ",
            "ADQS",
            "XYZ-001-12",
            null,
            6,
            "Told I Stop Breathing During Sleep",
            "APNEA",
            "OSA 50 SCREENING QUESTIONNAIRE",
            0,
            "0",
            null,
            null,
            null,
            null,
            null,
            null,
            null,
            null,
            null,
            "Y",
            "Y",
            "Y",
            "Y",
            "Y"
        ],
        [
            "XYZ",
            "ADQS",
            "XYZ-001-12",
            null,
            6,
            "Over 50 Years Old",
            "OVER50",
            "OSA 50 SCREENING QUESTIONNAIRE",
            2,
            "2",
            null,
            null,
            null,
            null,
            null,
            null,
            null,
            null,
            null,
            "Y",
            "Y",
            "Y",
            "Y",
            "Y"
        ],
        [
            "XYZ",
            "ADQS",
            "XYZ-001-12",
            null,
            6,
            "Total Score",
            "TOTSCORE",
            "OSA 50 SCREENING QUESTIONNAIRE",
            2,
            "2",
            null,
            null,
            null,
            null,
            null,
            null,
            null,
            null,
            null,
            "Y",
            "Y",
            "Y",
            "Y",
            "Y"
        ],
        [
            "XYZ",
            "ADQS",
            "XYZ-001-12",
            null,
            6,
            "Do You Snore Loudly",
            "LOUDSNOR",
            "STOP-BANG QUESTIONNAIRE",
            0,
            "0",
            null,
            null,
            null,
            null,
            null,
            null,
            null,
            null,
            null,
            "Y",
            "Y",
            "Y",
            "Y",
            "Y"
        ],
        [
            "XYZ",
            "ADQS",
            "XYZ-001-12",
            null,
            6,
            "Feel Tired Or Sleepy During Daytime",
            "DAYSLEEP",
            "STOP-BANG QUESTIONNAIRE",
            0,
            "0",
            null,
            null,
            null,
            null,
            null,
            null,
            null,
            null,
            null,
            "Y",
            "Y",
            "Y",
            "Y",
            "Y"
        ],
        [
            "XYZ",
            "ADQS",
            "XYZ-001-12",
            null,
            6,
            "Do You Stop Breathing During Sleep",
            "STOPBRTH",
            "STOP-BANG QUESTIONNAIRE",
            0,
            "0",
            null,
            null,
            null,
            null,
            null,
            null,
            null,
            null,
            null,
            "Y",
            "Y",
            "Y",
            "Y",
            "Y"
        ],
        [
            "XYZ",
            "ADQS",
            "XYZ-001-12",
            null,
            6,
            "Do You Have High Blood Pressure",
            "HIGHBP",
            "STOP-BANG QUESTIONNAIRE",
            0,
            "0",
            null,
            null,
            null,
            null,
            null,
            null,
            null,
            null,
            null,
            "Y",
            "Y",
            "Y",
            "Y",
            "Y"
        ],
        [
            "XYZ",
            "ADQS",
            "XYZ-001-12",
            null,
            6,
            "Subject BMI",
            "BMI",
            "STOP-BANG QUESTIONNAIRE",
            0,
            "0",
            null,
            null,
            null,
            null,
            null,
            null,
            null,
            null,
            null,
            "Y",
            "Y",
            "Y",
            "Y",
            "Y"
        ],
        [
            "XYZ",
            "ADQS",
            "XYZ-001-12",
            null,
            6,
            "Subject Age",
            "AGE",
            "STOP-BANG QUESTIONNAIRE",
            1,
            "1",
            null,
            null,
            null,
            null,
            null,
            null,
            null,
            null,
            null,
            "Y",
            "Y",
            "Y",
            "Y",
            "Y"
        ],
        [
            "XYZ",
            "ADQS",
            "XYZ-001-12",
            null,
            6,
            "Subject Neck Circumference",
            "NECKCIRC",
            "STOP-BANG QUESTIONNAIRE",
            0,
            "0",
            null,
            null,
            null,
            null,
            null,
            null,
            null,
            null,
            null,
            "Y",
            "Y",
            "Y",
            "Y",
            "Y"
        ],
        [
            "XYZ",
            "ADQS",
            "XYZ-001-12",
            null,
            6,
            "Subject Sex",
            "SEX",
            "STOP-BANG QUESTIONNAIRE",
            0,
            "0",
            null,
            null,
            null,
            null,
            null,
            null,
            null,
            null,
            null,
            "Y",
            "Y",
            "Y",
            "Y",
            "Y"
        ],
        [
            "XYZ",
            "ADQS",
            "XYZ-001-12",
            null,
            6,
            "Total STOP-BANG points",
            "TOTSCORE",
            "STOP-BANG QUESTIONNAIRE",
            1,
            "1",
            null,
            null,
            null,
            null,
            null,
            null,
            null,
            null,
            null,
            "Y",
            "Y",
            "Y",
            "Y",
            "Y"
        ],
        [
            "XYZ",
            "ADQS",
            "XYZ-001-12",
            null,
            6,
            "Risk Category",
            "RISKCAT",
            "STOP-BANG QUESTIONNAIRE",
            "Low",
            "Low",
            null,
            null,
            null,
            null,
            null,
            null,
            null,
            null,
            null,
            "Y",
            "Y",
            "Y",
            "Y",
            "Y"
        ],
        [
            "XYZ",
            "ADQS",
            "XYZ-001-12",
            null,
            6,
            "Average Snore Nights Per Week",
            "SNORNTWK",
            "SNORING PHENOTYPE QUESTIONNAIRE",
            "1-2 Nights",
            "1-2 Nights",
            null,
            "01-10-2019",
            "01-10-2019",
            null,
            null,
            null,
            null,
            null,
            null,
            "Y",
            "Y",
            "Y",
            "Y",
            "Y"
        ],
        [
            "XYZ",
            "ADQS",
            "XYZ-001-12",
            null,
            6,
            "Describe How Loudly You Snore",
            "SNORVOL",
            "SNORING PHENOTYPE QUESTIONNAIRE",
            "Very Quiet",
            "Very Quiet",
            null,
            "01-10-2019",
            "01-10-2019",
            null,
            null,
            null,
            null,
            null,
            null,
            "Y",
            "Y",
            "Y",
            "Y",
            "Y"
        ],
        [
            "XYZ",
            "ADQS",
            "XYZ-001-12",
            null,
            6,
            "Notice Sleeping Position Effect",
            "SNORPOS",
            "SNORING PHENOTYPE QUESTIONNAIRE",
            "Lying on side with arms out in front",
            "Lying on side with arms out in front",
            null,
            "01-10-2019",
            "01-10-2019",
            null,
            null,
            null,
            null,
            null,
            null,
            "Y",
            "Y",
            "Y",
            "Y",
            "Y"
        ],
        [
            "XYZ",
            "ADQS",
            "XYZ-001-12",
            null,
            6,
            "Snoring Regularly For How Long",
            "REGSNDUR",
            "SNORING PHENOTYPE QUESTIONNAIRE",
            "5-10 years",
            "5-10 years",
            null,
            "01-10-2019",
            "01-10-2019",
            null,
            null,
            null,
            null,
            null,
            null,
            "Y",
            "Y",
            "Y",
            "Y",
            "Y"
        ],
        [
            "XYZ",
            "ADQS",
            "XYZ-001-12",
            null,
            6,
            "Does Snoring Disrupt Sleep Quality",
            "SNSLPQUL",
            "SNORING PHENOTYPE QUESTIONNAIRE",
            "Difficulty Concentrating",
            "Difficulty Concentrating",
            null,
            "01-10-2019",
            "01-10-2019",
            null,
            null,
            null,
            null,
            null,
            null,
            "Y",
            "Y",
            "Y",
            "Y",
            "Y"
        ],
        [
            "XYZ",
            "ADQS",
            "XYZ-001-12",
            null,
            6,
            "Rate Last Night's Sleep Quality 1 to 10",
            "RATEQSLP",
            "DAILY QUESTIONNAIRE FOR SNORER",
            1,
            "1",
            null,
            "01-10-2019",
            "01-10-2019",
            null,
            null,
            null,
            null,
            null,
            null,
            "Y",
            "Y",
            "Y",
            "Y",
            "Y"
        ],
        [
            "XYZ",
            "ADQS",
            "XYZ-001-12",
            null,
            6,
            "Use Medical Device Last Night",
            "DEVUSE",
            "DAILY QUESTIONNAIRE FOR SNORER",
            "YES",
            "YES",
            null,
            "01-10-2019",
            "01-10-2019",
            null,
            null,
            null,
            null,
            null,
            null,
            "Y",
            "Y",
            "Y",
            "Y",
            "Y"
        ],
        [
            "XYZ",
            "ADQS",
            "XYZ-001-12",
            null,
            6,
            "Experience Discomfort With Device",
            "DEVCOMF",
            "DAILY QUESTIONNAIRE FOR SNORER",
            "NO",
            "NO",
            null,
            "01-10-2019",
            "01-10-2019",
            null,
            null,
            null,
            null,
            null,
            null,
            "Y",
            "Y",
            "Y",
            "Y",
            "Y"
        ],
        [
            "XYZ",
            "ADQS",
            "XYZ-001-12",
            null,
            6,
            "Feel More Rested Than Usual",
            "MORRESTD",
            "DAILY QUESTIONNAIRE FOR SNORER",
            "NO",
            "NO",
            null,
            "01-10-2019",
            "01-10-2019",
            null,
            null,
            null,
            null,
            null,
            null,
            "Y",
            "Y",
            "Y",
            "Y",
            "Y"
        ],
        [
            "XYZ",
            "ADQS",
            "XYZ-001-12",
            null,
            6,
            "Feel Discomfort In Mouth Or Throat",
            "ORALDCMF",
            "DAILY QUESTIONNAIRE FOR SNORER",
            "YES",
            "YES",
            null,
            "01-10-2019",
            "01-10-2019",
            null,
            null,
            null,
            null,
            null,
            null,
            "Y",
            "Y",
            "Y",
            "Y",
            "Y"
        ],
        [
            "XYZ",
            "ADQS",
            "XYZ-001-12",
            null,
            6,
            "Had Difficulty Falling Or Staying Asleep",
            "DFSTSLP",
            "DAILY QUESTIONNAIRE FOR SNORER",
            "NO",
            "NO",
            null,
            "01-10-2019",
            "01-10-2019",
            null,
            null,
            null,
            null,
            null,
            null,
            "Y",
            "Y",
            "Y",
            "Y",
            "Y"
        ],
        [
            "XYZ",
            "ADQS",
            "XYZ-001-12",
            null,
            6,
            "Which Product Rated",
            "PRODUCT",
            "IMPRESSION INTERVIEW FOR SNORER",
            "Mute",
            "Mute",
            null,
            "01-20-2019",
            "01-20-2019",
            null,
            null,
            null,
            null,
            null,
            null,
            "Y",
            "Y",
            "Y",
            "Y",
            "Y"
        ],
        [
            "XYZ",
            "ADQS",
            "XYZ-001-12",
            null,
            6,
            "Rate Device Satisfaction 1 to 10",
            "SNRDVSTF",
            "IMPRESSION INTERVIEW FOR SNORER",
            9,
            "9",
            null,
            "01-20-2019",
            "01-20-2019",
            null,
            null,
            null,
            null,
            null,
            null,
            "Y",
            "Y",
            "Y",
            "Y",
            "Y"
        ],
        [
            "XYZ",
            "ADQS",
            "XYZ-001-12",
            null,
            6,
            "Rate Probability To Buy Device 1 to 10",
            "PROBBUY",
            "IMPRESSION INTERVIEW FOR SNORER",
            2,
            "2",
            null,
            "01-20-2019",
            "01-20-2019",
            null,
            null,
            null,
            null,
            null,
            null,
            "Y",
            "Y",
            "Y",
            "Y",
            "Y"
        ],
        [
            "XYZ",
            "ADQS",
            "XYZ-001-12",
            null,
            6,
            "Rate Probability To Recommend 1 to 10",
            "RECOMMND",
            "IMPRESSION INTERVIEW FOR SNORER",
            7,
            "7",
            null,
            "01-20-2019",
            "01-20-2019",
            null,
            null,
            null,
            null,
            null,
            null,
            "Y",
            "Y",
            "Y",
            "Y",
            "Y"
        ],
        [
            "XYZ",
            "ADQS",
            "XYZ-001-12",
            null,
            6,
            "Will Consider Any Product In Future",
            "PRODFUTR",
            "FOLLOW-UP QUESTIONNAIRE",
            "Yes",
            "Yes",
            null,
            "05-18-2019",
            "05-18-2019",
            null,
            null,
            null,
            null,
            null,
            null,
            "Y",
            "Y",
            "Y",
            "Y",
            "Y"
        ],
        [
            "XYZ",
            "ADQS",
            "XYZ-001-12",
            null,
            6,
            "If Continued To Use Describe Experience",
            "DSCUSEXP",
            "FOLLOW-UP QUESTIONNAIRE",
            "SPT improved my snoring, but sometimes it was uncomfortable to sleep with.",
            "SPT improved my snoring, but sometimes it was uncomfortable to sleep with.",
            null,
            "05-18-2019",
            "05-18-2019",
            null,
            null,
            null,
            null,
            null,
            null,
            "Y",
            "Y",
            "Y",
            "Y",
            "Y"
        ],
        [
            "XYZ",
            "ADQS",
            "XYZ-001-12",
            null,
            6,
            "Rate Study Experience 1 to 5",
            "RTSTDYXP",
            "FOLLOW-UP QUESTIONNAIRE",
            9,
            "9",
            null,
            "05-18-2019",
            "05-18-2019",
            null,
            null,
            null,
            null,
            null,
            null,
            "Y",
            "Y",
            "Y",
            "Y",
            "Y"
        ],
        [
            "XYZ",
            "ADQS",
            "XYZ-001-7",
            null,
            7,
            "Understand Participant Information Sheet",
            "UNDRINFO",
            "CONSENT FORM QUESTIONNAIRE",
            "YES",
            "YES",
            null,
            "01-06-2019",
            "01-06-2019",
            null,
            null,
            null,
            null,
            null,
            null,
            "Y",
            "Y",
            "Y",
            "Y",
            "Y"
        ],
        [
            "XYZ",
            "ADQS",
            "XYZ-001-7",
            null,
            7,
            "Had Sufficient Time To Consider",
            "SUFFTIME",
            "CONSENT FORM QUESTIONNAIRE",
            "YES",
            "YES",
            null,
            "01-06-2019",
            "01-06-2019",
            null,
            null,
            null,
            null,
            null,
            null,
            "Y",
            "Y",
            "Y",
            "Y",
            "Y"
        ],
        [
            "XYZ",
            "ADQS",
            "XYZ-001-7",
            null,
            7,
            "Could Get Assistance To Understand Trial",
            "ASSTUNDR",
            "CONSENT FORM QUESTIONNAIRE",
            "YES",
            "YES",
            null,
            "01-06-2019",
            "01-06-2019",
            null,
            null,
            null,
            null,
            null,
            null,
            "Y",
            "Y",
            "Y",
            "Y",
            "Y"
        ],
        [
            "XYZ",
            "ADQS",
            "XYZ-001-7",
            null,
            7,
            "Satisfied With Explanation Of Trial",
            "STSFEXPL",
            "CONSENT FORM QUESTIONNAIRE",
            "YES",
            "YES",
            null,
            "01-06-2019",
            "01-06-2019",
            null,
            null,
            null,
            null,
            null,
            null,
            "Y",
            "Y",
            "Y",
            "Y",
            "Y"
        ],
        [
            "XYZ",
            "ADQS",
            "XYZ-001-7",
            null,
            7,
            "Understand My Participation Is Voluntary",
            "PRTCPVOL",
            "CONSENT FORM QUESTIONNAIRE",
            "YES",
            "YES",
            null,
            "01-06-2019",
            "01-06-2019",
            null,
            null,
            null,
            null,
            null,
            null,
            "Y",
            "Y",
            "Y",
            "Y",
            "Y"
        ],
        [
            "XYZ",
            "ADQS",
            "XYZ-001-7",
            null,
            7,
            "Consent To Information Collection",
            "CONSINFC",
            "CONSENT FORM QUESTIONNAIRE",
            "YES",
            "YES",
            null,
            "01-06-2019",
            "01-06-2019",
            null,
            null,
            null,
            null,
            null,
            null,
            "Y",
            "Y",
            "Y",
            "Y",
            "Y"
        ],
        [
            "XYZ",
            "ADQS",
            "XYZ-001-7",
            null,
            7,
            "Assured About Data Confidentiality",
            "ASDTCONF",
            "CONSENT FORM QUESTIONNAIRE",
            "YES",
            "YES",
            null,
            "01-06-2019",
            "01-06-2019",
            null,
            null,
            null,
            null,
            null,
            null,
            "Y",
            "Y",
            "Y",
            "Y",
            "Y"
        ],
        [
            "XYZ",
            "ADQS",
            "XYZ-001-7",
            null,
            7,
            "Understand I Get Copy Of My Results",
            "COPYRES",
            "CONSENT FORM QUESTIONNAIRE",
            "YES",
            "YES",
            null,
            "01-06-2019",
            "01-06-2019",
            null,
            null,
            null,
            null,
            null,
            null,
            "Y",
            "Y",
            "Y",
            "Y",
            "Y"
        ],
        [
            "XYZ",
            "ADQS",
            "XYZ-001-7",
            null,
            7,
            "Understand No Expenses Or Financial Aid",
            "NOFINAID",
            "CONSENT FORM QUESTIONNAIRE",
            "YES",
            "YES",
            null,
            "01-06-2019",
            "01-06-2019",
            null,
            null,
            null,
            null,
            null,
            null,
            "Y",
            "Y",
            "Y",
            "Y",
            "Y"
        ],
        [
            "XYZ",
            "ADQS",
            "XYZ-001-7",
            null,
            7,
            "Understand I Can Withdraw At Any Time",
            "WITHDRTM",
            "CONSENT FORM QUESTIONNAIRE",
            "YES",
            "YES",
            null,
            "01-06-2019",
            "01-06-2019",
            null,
            null,
            null,
            null,
            null,
            null,
            "Y",
            "Y",
            "Y",
            "Y",
            "Y"
        ],
        [
            "XYZ",
            "ADQS",
            "XYZ-001-7",
            null,
            7,
            "Agree To Allow Data Use After Withdrawal",
            "ALLWDATA",
            "CONSENT FORM QUESTIONNAIRE",
            "YES",
            "YES",
            null,
            "01-06-2019",
            "01-06-2019",
            null,
            null,
            null,
            null,
            null,
            null,
            "Y",
            "Y",
            "Y",
            "Y",
            "Y"
        ],
        [
            "XYZ",
            "ADQS",
            "XYZ-001-7",
            null,
            7,
            "Have Contact Info For Questions",
            "CONTQUES",
            "CONSENT FORM QUESTIONNAIRE",
            "YES",
            "YES",
            null,
            "01-06-2019",
            "01-06-2019",
            null,
            null,
            null,
            null,
            null,
            null,
            "Y",
            "Y",
            "Y",
            "Y",
            "Y"
        ],
        [
            "XYZ",
            "ADQS",
            "XYZ-001-7",
            null,
            7,
            "Understand Participant Responsibilities",
            "UNDRRESP",
            "CONSENT FORM QUESTIONNAIRE",
            "YES",
            "YES",
            null,
            "01-06-2019",
            "01-06-2019",
            null,
            null,
            null,
            null,
            null,
            null,
            "Y",
            "Y",
            "Y",
            "Y",
            "Y"
        ],
        [
            "XYZ",
            "ADQS",
            "XYZ-001-7",
            null,
            7,
            "Waist Circumference Over Mark",
            "OBESITY",
            "OSA 50 SCREENING QUESTIONNAIRE",
            3,
            "3",
            null,
            null,
            null,
            null,
            null,
            null,
            null,
            null,
            null,
            "Y",
            "Y",
            "Y",
            "Y",
            "Y"
        ],
        [
            "XYZ",
            "ADQS",
            "XYZ-001-7",
            null,
            7,
            "Snoring Bothered Other People",
            "SNORER",
            "OSA 50 SCREENING QUESTIONNAIRE",
            3,
            "3",
            null,
            null,
            null,
            null,
            null,
            null,
            null,
            null,
            null,
            "Y",
            "Y",
            "Y",
            "Y",
            "Y"
        ],
        [
            "XYZ",
            "ADQS",
            "XYZ-001-7",
            null,
            7,
            "Told I Stop Breathing During Sleep",
            "APNEA",
            "OSA 50 SCREENING QUESTIONNAIRE",
            0,
            "0",
            null,
            null,
            null,
            null,
            null,
            null,
            null,
            null,
            null,
            "Y",
            "Y",
            "Y",
            "Y",
            "Y"
        ],
        [
            "XYZ",
            "ADQS",
            "XYZ-001-7",
            null,
            7,
            "Over 50 Years Old",
            "OVER50",
            "OSA 50 SCREENING QUESTIONNAIRE",
            0,
            "0",
            null,
            null,
            null,
            null,
            null,
            null,
            null,
            null,
            null,
            "Y",
            "Y",
            "Y",
            "Y",
            "Y"
        ],
        [
            "XYZ",
            "ADQS",
            "XYZ-001-7",
            null,
            7,
            "Total Score",
            "TOTSCORE",
            "OSA 50 SCREENING QUESTIONNAIRE",
            6,
            "6",
            null,
            null,
            null,
            null,
            null,
            null,
            null,
            null,
            null,
            "Y",
            "Y",
            "Y",
            "Y",
            "Y"
        ],
        [
            "XYZ",
            "ADQS",
            "XYZ-001-7",
            null,
            7,
            "Do You Snore Loudly",
            "LOUDSNOR",
            "STOP-BANG QUESTIONNAIRE",
            1,
            "1",
            null,
            null,
            null,
            null,
            null,
            null,
            null,
            null,
            null,
            "Y",
            "Y",
            "Y",
            "Y",
            "Y"
        ],
        [
            "XYZ",
            "ADQS",
            "XYZ-001-7",
            null,
            7,
            "Feel Tired Or Sleepy During Daytime",
            "DAYSLEEP",
            "STOP-BANG QUESTIONNAIRE",
            1,
            "1",
            null,
            null,
            null,
            null,
            null,
            null,
            null,
            null,
            null,
            "Y",
            "Y",
            "Y",
            "Y",
            "Y"
        ],
        [
            "XYZ",
            "ADQS",
            "XYZ-001-7",
            null,
            7,
            "Do You Stop Breathing During Sleep",
            "STOPBRTH",
            "STOP-BANG QUESTIONNAIRE",
            0,
            "0",
            null,
            null,
            null,
            null,
            null,
            null,
            null,
            null,
            null,
            "Y",
            "Y",
            "Y",
            "Y",
            "Y"
        ],
        [
            "XYZ",
            "ADQS",
            "XYZ-001-7",
            null,
            7,
            "Do You Have High Blood Pressure",
            "HIGHBP",
            "STOP-BANG QUESTIONNAIRE",
            0,
            "0",
            null,
            null,
            null,
            null,
            null,
            null,
            null,
            null,
            null,
            "Y",
            "Y",
            "Y",
            "Y",
            "Y"
        ],
        [
            "XYZ",
            "ADQS",
            "XYZ-001-7",
            null,
            7,
            "Subject BMI",
            "BMI",
            "STOP-BANG QUESTIONNAIRE",
            0,
            "0",
            null,
            null,
            null,
            null,
            null,
            null,
            null,
            null,
            null,
            "Y",
            "Y",
            "Y",
            "Y",
            "Y"
        ],
        [
            "XYZ",
            "ADQS",
            "XYZ-001-7",
            null,
            7,
            "Subject Age",
            "AGE",
            "STOP-BANG QUESTIONNAIRE",
            0,
            "0",
            null,
            null,
            null,
            null,
            null,
            null,
            null,
            null,
            null,
            "Y",
            "Y",
            "Y",
            "Y",
            "Y"
        ],
        [
            "XYZ",
            "ADQS",
            "XYZ-001-7",
            null,
            7,
            "Subject Neck Circumference",
            "NECKCIRC",
            "STOP-BANG QUESTIONNAIRE",
            0,
            "0",
            null,
            null,
            null,
            null,
            null,
            null,
            null,
            null,
            null,
            "Y",
            "Y",
            "Y",
            "Y",
            "Y"
        ],
        [
            "XYZ",
            "ADQS",
            "XYZ-001-7",
            null,
            7,
            "Subject Sex",
            "SEX",
            "STOP-BANG QUESTIONNAIRE",
            1,
            "1",
            null,
            null,
            null,
            null,
            null,
            null,
            null,
            null,
            null,
            "Y",
            "Y",
            "Y",
            "Y",
            "Y"
        ],
        [
            "XYZ",
            "ADQS",
            "XYZ-001-7",
            null,
            7,
            "Total STOP-BANG points",
            "TOTSCORE",
            "STOP-BANG QUESTIONNAIRE",
            3,
            "3",
            null,
            null,
            null,
            null,
            null,
            null,
            null,
            null,
            null,
            "Y",
            "Y",
            "Y",
            "Y",
            "Y"
        ],
        [
            "XYZ",
            "ADQS",
            "XYZ-001-7",
            null,
            7,
            "Risk Category",
            "RISKCAT",
            "STOP-BANG QUESTIONNAIRE",
            "Intermediate",
            "Intermediate",
            null,
            null,
            null,
            null,
            null,
            null,
            null,
            null,
            null,
            "Y",
            "Y",
            "Y",
            "Y",
            "Y"
        ],
        [
            "XYZ",
            "ADQS",
            "XYZ-001-7",
            null,
            7,
            "Average Snore Nights Per Week",
            "SNORNTWK",
            "SNORING PHENOTYPE QUESTIONNAIRE",
            "3-4 Nights",
            "3-4 Nights",
            null,
            "01-06-2019",
            "01-06-2019",
            null,
            null,
            null,
            null,
            null,
            null,
            "Y",
            "Y",
            "Y",
            "Y",
            "Y"
        ],
        [
            "XYZ",
            "ADQS",
            "XYZ-001-7",
            null,
            7,
            "Describe How Loudly You Snore",
            "SNORVOL",
            "SNORING PHENOTYPE QUESTIONNAIRE",
            "Loud",
            "Loud",
            null,
            "01-06-2019",
            "01-06-2019",
            null,
            null,
            null,
            null,
            null,
            null,
            "Y",
            "Y",
            "Y",
            "Y",
            "Y"
        ],
        [
            "XYZ",
            "ADQS",
            "XYZ-001-7",
            null,
            7,
            "Notice Sleeping Position Effect",
            "SNORPOS",
            "SNORING PHENOTYPE QUESTIONNAIRE",
            "Lying on side with arms down by sides",
            "Lying on side with arms down by sides",
            null,
            "01-06-2019",
            "01-06-2019",
            null,
            null,
            null,
            null,
            null,
            null,
            "Y",
            "Y",
            "Y",
            "Y",
            "Y"
        ],
        [
            "XYZ",
            "ADQS",
            "XYZ-001-7",
            null,
            7,
            "Snoring Regularly For How Long",
            "REGSNDUR",
            "SNORING PHENOTYPE QUESTIONNAIRE",
            "Less than 1 year",
            "Less than 1 year",
            null,
            "01-06-2019",
            "01-06-2019",
            null,
            null,
            null,
            null,
            null,
            null,
            "Y",
            "Y",
            "Y",
            "Y",
            "Y"
        ],
        [
            "XYZ",
            "ADQS",
            "XYZ-001-7",
            null,
            7,
            "Does Snoring Disrupt Sleep Quality",
            "SNSLPQUL",
            "SNORING PHENOTYPE QUESTIONNAIRE",
            "Breathing Pauses during sleep",
            "Breathing Pauses during sleep",
            null,
            "01-06-2019",
            "01-06-2019",
            null,
            null,
            null,
            null,
            null,
            null,
            "Y",
            "Y",
            "Y",
            "Y",
            "Y"
        ],
        [
            "XYZ",
            "ADQS",
            "XYZ-001-7",
            null,
            7,
            "Rate Last Night's Sleep Quality 1 to 10",
            "RATEQSLP",
            "DAILY QUESTIONNAIRE FOR SNORER",
            2,
            "2",
            null,
            "01-06-2019",
            "01-06-2019",
            null,
            null,
            null,
            null,
            null,
            null,
            "Y",
            "Y",
            "Y",
            "Y",
            "Y"
        ],
        [
            "XYZ",
            "ADQS",
            "XYZ-001-7",
            null,
            7,
            "Use Medical Device Last Night",
            "DEVUSE",
            "DAILY QUESTIONNAIRE FOR SNORER",
            "YES",
            "YES",
            null,
            "01-06-2019",
            "01-06-2019",
            null,
            null,
            null,
            null,
            null,
            null,
            "Y",
            "Y",
            "Y",
            "Y",
            "Y"
        ],
        [
            "XYZ",
            "ADQS",
            "XYZ-001-7",
            null,
            7,
            "Experience Discomfort With Device",
            "DEVCOMF",
            "DAILY QUESTIONNAIRE FOR SNORER",
            "YES",
            "YES",
            null,
            "01-06-2019",
            "01-06-2019",
            null,
            null,
            null,
            null,
            null,
            null,
            "Y",
            "Y",
            "Y",
            "Y",
            "Y"
        ],
        [
            "XYZ",
            "ADQS",
            "XYZ-001-7",
            null,
            7,
            "Feel More Rested Than Usual",
            "MORRESTD",
            "DAILY QUESTIONNAIRE FOR SNORER",
            "YES",
            "YES",
            null,
            "01-06-2019",
            "01-06-2019",
            null,
            null,
            null,
            null,
            null,
            null,
            "Y",
            "Y",
            "Y",
            "Y",
            "Y"
        ],
        [
            "XYZ",
            "ADQS",
            "XYZ-001-7",
            null,
            7,
            "Feel Discomfort In Mouth Or Throat",
            "ORALDCMF",
            "DAILY QUESTIONNAIRE FOR SNORER",
            "NO",
            "NO",
            null,
            "01-06-2019",
            "01-06-2019",
            null,
            null,
            null,
            null,
            null,
            null,
            "Y",
            "Y",
            "Y",
            "Y",
            "Y"
        ],
        [
            "XYZ",
            "ADQS",
            "XYZ-001-7",
            null,
            7,
            "Had Difficulty Falling Or Staying Asleep",
            "DFSTSLP",
            "DAILY QUESTIONNAIRE FOR SNORER",
            "YES",
            "YES",
            null,
            "01-06-2019",
            "01-06-2019",
            null,
            null,
            null,
            null,
            null,
            null,
            "Y",
            "Y",
            "Y",
            "Y",
            "Y"
        ],
        [
            "XYZ",
            "ADQS",
            "XYZ-001-7",
            null,
            7,
            "Which Product Rated",
            "PRODUCT",
            "IMPRESSION INTERVIEW FOR SNORER",
            "Mute",
            "Mute",
            null,
            "01-16-2019",
            "01-16-2019",
            null,
            null,
            null,
            null,
            null,
            null,
            "Y",
            "Y",
            "Y",
            "Y",
            "Y"
        ],
        [
            "XYZ",
            "ADQS",
            "XYZ-001-7",
            null,
            7,
            "Rate Device Satisfaction 1 to 10",
            "SNRDVSTF",
            "IMPRESSION INTERVIEW FOR SNORER",
            4,
            "4",
            null,
            "01-16-2019",
            "01-16-2019",
            null,
            null,
            null,
            null,
            null,
            null,
            "Y",
            "Y",
            "Y",
            "Y",
            "Y"
        ],
        [
            "XYZ",
            "ADQS",
            "XYZ-001-7",
            null,
            7,
            "Rate Probability To Buy Device 1 to 10",
            "PROBBUY",
            "IMPRESSION INTERVIEW FOR SNORER",
            2,
            "2",
            null,
            "01-16-2019",
            "01-16-2019",
            null,
            null,
            null,
            null,
            null,
            null,
            "Y",
            "Y",
            "Y",
            "Y",
            "Y"
        ],
        [
            "XYZ",
            "ADQS",
            "XYZ-001-7",
            null,
            7,
            "Rate Probability To Recommend 1 to 10",
            "RECOMMND",
            "IMPRESSION INTERVIEW FOR SNORER",
            1,
            "1",
            null,
            "01-16-2019",
            "01-16-2019",
            null,
            null,
            null,
            null,
            null,
            null,
            "Y",
            "Y",
            "Y",
            "Y",
            "Y"
        ],
        [
            "XYZ",
            "ADQS",
            "XYZ-001-7",
            null,
            7,
            "Will Consider Any Product In Future",
            "PRODFUTR",
            "FOLLOW-UP QUESTIONNAIRE",
            "Yes",
            "Yes",
            null,
            "05-14-2019",
            "05-14-2019",
            null,
            null,
            null,
            null,
            null,
            null,
            "Y",
            "Y",
            "Y",
            "Y",
            "Y"
        ],
        [
            "XYZ",
            "ADQS",
            "XYZ-001-7",
            null,
            7,
            "If Continued To Use Describe Experience",
            "DSCUSEXP",
            "FOLLOW-UP QUESTIONNAIRE",
            "SPT helped reduce my sleep apnea episodes. I felt it was a great improvement in my quality of sleep.",
            "SPT helped reduce my sleep apnea episodes. I felt it was a great improvement in my quality of sleep.",
            null,
            "05-14-2019",
            "05-14-2019",
            null,
            null,
            null,
            null,
            null,
            null,
            "Y",
            "Y",
            "Y",
            "Y",
            "Y"
        ],
        [
            "XYZ",
            "ADQS",
            "XYZ-001-7",
            null,
            7,
            "Rate Study Experience 1 to 5",
            "RTSTDYXP",
            "FOLLOW-UP QUESTIONNAIRE",
            10,
            "10",
            null,
            "05-14-2019",
            "05-14-2019",
            null,
            null,
            null,
            null,
            null,
            null,
            "Y",
            "Y",
            "Y",
            "Y",
            "Y"
        ],
        [
            "XYZ",
            "ADQS",
            "XYZ-001-29",
            null,
            8,
            "Understand Participant Information Sheet",
            "UNDRINFO",
            "CONSENT FORM QUESTIONNAIRE",
            "YES",
            "YES",
            null,
            "01-03-2019",
            "01-03-2019",
            null,
            null,
            null,
            null,
            null,
            null,
            "Y",
            "Y",
            "Y",
            "Y",
            "Y"
        ],
        [
            "XYZ",
            "ADQS",
            "XYZ-001-29",
            null,
            8,
            "Had Sufficient Time To Consider",
            "SUFFTIME",
            "CONSENT FORM QUESTIONNAIRE",
            "YES",
            "YES",
            null,
            "01-03-2019",
            "01-03-2019",
            null,
            null,
            null,
            null,
            null,
            null,
            "Y",
            "Y",
            "Y",
            "Y",
            "Y"
        ],
        [
            "XYZ",
            "ADQS",
            "XYZ-001-29",
            null,
            8,
            "Could Get Assistance To Understand Trial",
            "ASSTUNDR",
            "CONSENT FORM QUESTIONNAIRE",
            "YES",
            "YES",
            null,
            "01-03-2019",
            "01-03-2019",
            null,
            null,
            null,
            null,
            null,
            null,
            "Y",
            "Y",
            "Y",
            "Y",
            "Y"
        ],
        [
            "XYZ",
            "ADQS",
            "XYZ-001-29",
            null,
            8,
            "Satisfied With Explanation Of Trial",
            "STSFEXPL",
            "CONSENT FORM QUESTIONNAIRE",
            "YES",
            "YES",
            null,
            "01-03-2019",
            "01-03-2019",
            null,
            null,
            null,
            null,
            null,
            null,
            "Y",
            "Y",
            "Y",
            "Y",
            "Y"
        ],
        [
            "XYZ",
            "ADQS",
            "XYZ-001-29",
            null,
            8,
            "Understand My Participation Is Voluntary",
            "PRTCPVOL",
            "CONSENT FORM QUESTIONNAIRE",
            "YES",
            "YES",
            null,
            "01-03-2019",
            "01-03-2019",
            null,
            null,
            null,
            null,
            null,
            null,
            "Y",
            "Y",
            "Y",
            "Y",
            "Y"
        ],
        [
            "XYZ",
            "ADQS",
            "XYZ-001-29",
            null,
            8,
            "Consent To Information Collection",
            "CONSINFC",
            "CONSENT FORM QUESTIONNAIRE",
            "YES",
            "YES",
            null,
            "01-03-2019",
            "01-03-2019",
            null,
            null,
            null,
            null,
            null,
            null,
            "Y",
            "Y",
            "Y",
            "Y",
            "Y"
        ],
        [
            "XYZ",
            "ADQS",
            "XYZ-001-29",
            null,
            8,
            "Assured About Data Confidentiality",
            "ASDTCONF",
            "CONSENT FORM QUESTIONNAIRE",
            "YES",
            "YES",
            null,
            "01-03-2019",
            "01-03-2019",
            null,
            null,
            null,
            null,
            null,
            null,
            "Y",
            "Y",
            "Y",
            "Y",
            "Y"
        ],
        [
            "XYZ",
            "ADQS",
            "XYZ-001-29",
            null,
            8,
            "Understand I Get Copy Of My Results",
            "COPYRES",
            "CONSENT FORM QUESTIONNAIRE",
            "YES",
            "YES",
            null,
            "01-03-2019",
            "01-03-2019",
            null,
            null,
            null,
            null,
            null,
            null,
            "Y",
            "Y",
            "Y",
            "Y",
            "Y"
        ],
        [
            "XYZ",
            "ADQS",
            "XYZ-001-29",
            null,
            8,
            "Understand No Expenses Or Financial Aid",
            "NOFINAID",
            "CONSENT FORM QUESTIONNAIRE",
            "YES",
            "YES",
            null,
            "01-03-2019",
            "01-03-2019",
            null,
            null,
            null,
            null,
            null,
            null,
            "Y",
            "Y",
            "Y",
            "Y",
            "Y"
        ],
        [
            "XYZ",
            "ADQS",
            "XYZ-001-29",
            null,
            8,
            "Understand I Can Withdraw At Any Time",
            "WITHDRTM",
            "CONSENT FORM QUESTIONNAIRE",
            "YES",
            "YES",
            null,
            "01-03-2019",
            "01-03-2019",
            null,
            null,
            null,
            null,
            null,
            null,
            "Y",
            "Y",
            "Y",
            "Y",
            "Y"
        ],
        [
            "XYZ",
            "ADQS",
            "XYZ-001-29",
            null,
            8,
            "Agree To Allow Data Use After Withdrawal",
            "ALLWDATA",
            "CONSENT FORM QUESTIONNAIRE",
            "YES",
            "YES",
            null,
            "01-03-2019",
            "01-03-2019",
            null,
            null,
            null,
            null,
            null,
            null,
            "Y",
            "Y",
            "Y",
            "Y",
            "Y"
        ],
        [
            "XYZ",
            "ADQS",
            "XYZ-001-29",
            null,
            8,
            "Have Contact Info For Questions",
            "CONTQUES",
            "CONSENT FORM QUESTIONNAIRE",
            "YES",
            "YES",
            null,
            "01-03-2019",
            "01-03-2019",
            null,
            null,
            null,
            null,
            null,
            null,
            "Y",
            "Y",
            "Y",
            "Y",
            "Y"
        ],
        [
            "XYZ",
            "ADQS",
            "XYZ-001-29",
            null,
            8,
            "Understand Participant Responsibilities",
            "UNDRRESP",
            "CONSENT FORM QUESTIONNAIRE",
            "YES",
            "YES",
            null,
            "01-03-2019",
            "01-03-2019",
            null,
            null,
            null,
            null,
            null,
            null,
            "Y",
            "Y",
            "Y",
            "Y",
            "Y"
        ],
        [
            "XYZ",
            "ADQS",
            "XYZ-001-29",
            null,
            8,
            "Waist Circumference Over Mark",
            "OBESITY",
            "OSA 50 SCREENING QUESTIONNAIRE",
            3,
            "3",
            null,
            null,
            null,
            null,
            null,
            null,
            null,
            null,
            null,
            "Y",
            "Y",
            "Y",
            "Y",
            "Y"
        ],
        [
            "XYZ",
            "ADQS",
            "XYZ-001-29",
            null,
            8,
            "Snoring Bothered Other People",
            "SNORER",
            "OSA 50 SCREENING QUESTIONNAIRE",
            0,
            "0",
            null,
            null,
            null,
            null,
            null,
            null,
            null,
            null,
            null,
            "Y",
            "Y",
            "Y",
            "Y",
            "Y"
        ],
        [
            "XYZ",
            "ADQS",
            "XYZ-001-29",
            null,
            8,
            "Told I Stop Breathing During Sleep",
            "APNEA",
            "OSA 50 SCREENING QUESTIONNAIRE",
            2,
            "2",
            null,
            null,
            null,
            null,
            null,
            null,
            null,
            null,
            null,
            "Y",
            "Y",
            "Y",
            "Y",
            "Y"
        ],
        [
            "XYZ",
            "ADQS",
            "XYZ-001-29",
            null,
            8,
            "Over 50 Years Old",
            "OVER50",
            "OSA 50 SCREENING QUESTIONNAIRE",
            0,
            "0",
            null,
            null,
            null,
            null,
            null,
            null,
            null,
            null,
            null,
            "Y",
            "Y",
            "Y",
            "Y",
            "Y"
        ],
        [
            "XYZ",
            "ADQS",
            "XYZ-001-29",
            null,
            8,
            "Total Score",
            "TOTSCORE",
            "OSA 50 SCREENING QUESTIONNAIRE",
            5,
            "5",
            null,
            null,
            null,
            null,
            null,
            null,
            null,
            null,
            null,
            "Y",
            "Y",
            "Y",
            "Y",
            "Y"
        ],
        [
            "XYZ",
            "ADQS",
            "XYZ-001-29",
            null,
            8,
            "Do You Snore Loudly",
            "LOUDSNOR",
            "STOP-BANG QUESTIONNAIRE",
            0,
            "0",
            null,
            null,
            null,
            null,
            null,
            null,
            null,
            null,
            null,
            "Y",
            "Y",
            "Y",
            "Y",
            "Y"
        ],
        [
            "XYZ",
            "ADQS",
            "XYZ-001-29",
            null,
            8,
            "Feel Tired Or Sleepy During Daytime",
            "DAYSLEEP",
            "STOP-BANG QUESTIONNAIRE",
            0,
            "0",
            null,
            null,
            null,
            null,
            null,
            null,
            null,
            null,
            null,
            "Y",
            "Y",
            "Y",
            "Y",
            "Y"
        ],
        [
            "XYZ",
            "ADQS",
            "XYZ-001-29",
            null,
            8,
            "Do You Stop Breathing During Sleep",
            "STOPBRTH",
            "STOP-BANG QUESTIONNAIRE",
            0,
            "0",
            null,
            null,
            null,
            null,
            null,
            null,
            null,
            null,
            null,
            "Y",
            "Y",
            "Y",
            "Y",
            "Y"
        ],
        [
            "XYZ",
            "ADQS",
            "XYZ-001-29",
            null,
            8,
            "Do You Have High Blood Pressure",
            "HIGHBP",
            "STOP-BANG QUESTIONNAIRE",
            0,
            "0",
            null,
            null,
            null,
            null,
            null,
            null,
            null,
            null,
            null,
            "Y",
            "Y",
            "Y",
            "Y",
            "Y"
        ],
        [
            "XYZ",
            "ADQS",
            "XYZ-001-29",
            null,
            8,
            "Subject BMI",
            "BMI",
            "STOP-BANG QUESTIONNAIRE",
            0,
            "0",
            null,
            null,
            null,
            null,
            null,
            null,
            null,
            null,
            null,
            "Y",
            "Y",
            "Y",
            "Y",
            "Y"
        ],
        [
            "XYZ",
            "ADQS",
            "XYZ-001-29",
            null,
            8,
            "Subject Age",
            "AGE",
            "STOP-BANG QUESTIONNAIRE",
            0,
            "0",
            null,
            null,
            null,
            null,
            null,
            null,
            null,
            null,
            null,
            "Y",
            "Y",
            "Y",
            "Y",
            "Y"
        ],
        [
            "XYZ",
            "ADQS",
            "XYZ-001-29",
            null,
            8,
            "Subject Neck Circumference",
            "NECKCIRC",
            "STOP-BANG QUESTIONNAIRE",
            0,
            "0",
            null,
            null,
            null,
            null,
            null,
            null,
            null,
            null,
            null,
            "Y",
            "Y",
            "Y",
            "Y",
            "Y"
        ],
        [
            "XYZ",
            "ADQS",
            "XYZ-001-29",
            null,
            8,
            "Subject Sex",
            "SEX",
            "STOP-BANG QUESTIONNAIRE",
            0,
            "0",
            null,
            null,
            null,
            null,
            null,
            null,
            null,
            null,
            null,
            "Y",
            "Y",
            "Y",
            "Y",
            "Y"
        ],
        [
            "XYZ",
            "ADQS",
            "XYZ-001-29",
            null,
            8,
            "Total STOP-BANG points",
            "TOTSCORE",
            "STOP-BANG QUESTIONNAIRE",
            0,
            "0",
            null,
            null,
            null,
            null,
            null,
            null,
            null,
            null,
            null,
            "Y",
            "Y",
            "Y",
            "Y",
            "Y"
        ],
        [
            "XYZ",
            "ADQS",
            "XYZ-001-29",
            null,
            8,
            "Risk Category",
            "RISKCAT",
            "STOP-BANG QUESTIONNAIRE",
            "Low",
            "Low",
            null,
            null,
            null,
            null,
            null,
            null,
            null,
            null,
            null,
            "Y",
            "Y",
            "Y",
            "Y",
            "Y"
        ],
        [
            "XYZ",
            "ADQS",
            "XYZ-001-29",
            null,
            8,
            "Average Snore Nights Per Week",
            "SNORNTWK",
            "SNORING PHENOTYPE QUESTIONNAIRE",
            "Every Night",
            "Every Night",
            null,
            "01-03-2019",
            "01-03-2019",
            null,
            null,
            null,
            null,
            null,
            null,
            "Y",
            "Y",
            "Y",
            "Y",
            "Y"
        ],
        [
            "XYZ",
            "ADQS",
            "XYZ-001-29",
            null,
            8,
            "Describe How Loudly You Snore",
            "SNORVOL",
            "SNORING PHENOTYPE QUESTIONNAIRE",
            "Very Quiet",
            "Very Quiet",
            null,
            "01-03-2019",
            "01-03-2019",
            null,
            null,
            null,
            null,
            null,
            null,
            "Y",
            "Y",
            "Y",
            "Y",
            "Y"
        ],
        [
            "XYZ",
            "ADQS",
            "XYZ-001-29",
            null,
            8,
            "Notice Sleeping Position Effect",
            "SNORPOS",
            "SNORING PHENOTYPE QUESTIONNAIRE",
            "Lying on side with arms down by sides",
            "Lying on side with arms down by sides",
            null,
            "01-03-2019",
            "01-03-2019",
            null,
            null,
            null,
            null,
            null,
            null,
            "Y",
            "Y",
            "Y",
            "Y",
            "Y"
        ],
        [
            "XYZ",
            "ADQS",
            "XYZ-001-29",
            null,
            8,
            "Snoring Regularly For How Long",
            "REGSNDUR",
            "SNORING PHENOTYPE QUESTIONNAIRE",
            "5-10 years",
            "5-10 years",
            null,
            "01-03-2019",
            "01-03-2019",
            null,
            null,
            null,
            null,
            null,
            null,
            "Y",
            "Y",
            "Y",
            "Y",
            "Y"
        ],
        [
            "XYZ",
            "ADQS",
            "XYZ-001-29",
            null,
            8,
            "Does Snoring Disrupt Sleep Quality",
            "SNSLPQUL",
            "SNORING PHENOTYPE QUESTIONNAIRE",
            "High Blood Pressure",
            "High Blood Pressure",
            null,
            "01-03-2019",
            "01-03-2019",
            null,
            null,
            null,
            null,
            null,
            null,
            "Y",
            "Y",
            "Y",
            "Y",
            "Y"
        ],
        [
            "XYZ",
            "ADQS",
            "XYZ-001-29",
            null,
            8,
            "Rate Last Night's Sleep Quality 1 to 10",
            "RATEQSLP",
            "DAILY QUESTIONNAIRE FOR SNORER",
            6,
            "6",
            null,
            "01-03-2019",
            "01-03-2019",
            null,
            null,
            null,
            null,
            null,
            null,
            "Y",
            "Y",
            "Y",
            "Y",
            "Y"
        ],
        [
            "XYZ",
            "ADQS",
            "XYZ-001-29",
            null,
            8,
            "Use Medical Device Last Night",
            "DEVUSE",
            "DAILY QUESTIONNAIRE FOR SNORER",
            "YES",
            "YES",
            null,
            "01-03-2019",
            "01-03-2019",
            null,
            null,
            null,
            null,
            null,
            null,
            "Y",
            "Y",
            "Y",
            "Y",
            "Y"
        ],
        [
            "XYZ",
            "ADQS",
            "XYZ-001-29",
            null,
            8,
            "Experience Discomfort With Device",
            "DEVCOMF",
            "DAILY QUESTIONNAIRE FOR SNORER",
            "YES",
            "YES",
            null,
            "01-03-2019",
            "01-03-2019",
            null,
            null,
            null,
            null,
            null,
            null,
            "Y",
            "Y",
            "Y",
            "Y",
            "Y"
        ],
        [
            "XYZ",
            "ADQS",
            "XYZ-001-29",
            null,
            8,
            "Feel More Rested Than Usual",
            "MORRESTD",
            "DAILY QUESTIONNAIRE FOR SNORER",
            "YES",
            "YES",
            null,
            "01-03-2019",
            "01-03-2019",
            null,
            null,
            null,
            null,
            null,
            null,
            "Y",
            "Y",
            "Y",
            "Y",
            "Y"
        ],
        [
            "XYZ",
            "ADQS",
            "XYZ-001-29",
            null,
            8,
            "Feel Discomfort In Mouth Or Throat",
            "ORALDCMF",
            "DAILY QUESTIONNAIRE FOR SNORER",
            "NO",
            "NO",
            null,
            "01-03-2019",
            "01-03-2019",
            null,
            null,
            null,
            null,
            null,
            null,
            "Y",
            "Y",
            "Y",
            "Y",
            "Y"
        ],
        [
            "XYZ",
            "ADQS",
            "XYZ-001-29",
            null,
            8,
            "Had Difficulty Falling Or Staying Asleep",
            "DFSTSLP",
            "DAILY QUESTIONNAIRE FOR SNORER",
            "NO",
            "NO",
            null,
            "01-03-2019",
            "01-03-2019",
            null,
            null,
            null,
            null,
            null,
            null,
            "Y",
            "Y",
            "Y",
            "Y",
            "Y"
        ],
        [
            "XYZ",
            "ADQS",
            "XYZ-001-29",
            null,
            8,
            "Which Product Rated",
            "PRODUCT",
            "IMPRESSION INTERVIEW FOR SNORER",
            "Mute",
            "Mute",
            null,
            "01-13-2019",
            "01-13-2019",
            null,
            null,
            null,
            null,
            null,
            null,
            "Y",
            "Y",
            "Y",
            "Y",
            "Y"
        ],
        [
            "XYZ",
            "ADQS",
            "XYZ-001-29",
            null,
            8,
            "Rate Device Satisfaction 1 to 10",
            "SNRDVSTF",
            "IMPRESSION INTERVIEW FOR SNORER",
            5,
            "5",
            null,
            "01-13-2019",
            "01-13-2019",
            null,
            null,
            null,
            null,
            null,
            null,
            "Y",
            "Y",
            "Y",
            "Y",
            "Y"
        ],
        [
            "XYZ",
            "ADQS",
            "XYZ-001-29",
            null,
            8,
            "Rate Probability To Buy Device 1 to 10",
            "PROBBUY",
            "IMPRESSION INTERVIEW FOR SNORER",
            8,
            "8",
            null,
            "01-13-2019",
            "01-13-2019",
            null,
            null,
            null,
            null,
            null,
            null,
            "Y",
            "Y",
            "Y",
            "Y",
            "Y"
        ],
        [
            "XYZ",
            "ADQS",
            "XYZ-001-29",
            null,
            8,
            "Rate Probability To Recommend 1 to 10",
            "RECOMMND",
            "IMPRESSION INTERVIEW FOR SNORER",
            6,
            "6",
            null,
            "01-13-2019",
            "01-13-2019",
            null,
            null,
            null,
            null,
            null,
            null,
            "Y",
            "Y",
            "Y",
            "Y",
            "Y"
        ],
        [
            "XYZ",
            "ADQS",
            "XYZ-001-29",
            null,
            8,
            "Will Consider Any Product In Future",
            "PRODFUTR",
            "FOLLOW-UP QUESTIONNAIRE",
            "Yes",
            "Yes",
            null,
            "05-11-2019",
            "05-11-2019",
            null,
            null,
            null,
            null,
            null,
            null,
            "Y",
            "Y",
            "Y",
            "Y",
            "Y"
        ],
        [
            "XYZ",
            "ADQS",
