{
    "datasetJSONCreationDateTime": "2025-01-15T11:52:16",
    "datasetJSONVersion": "1.1.0",
    "fileOID": "XYZ_SDTM_ADSL",
    "dbLastModifiedDateTime": "2025-01-15T11:52:16",
    "originator": "EDA Clinical",
    "sourceSystem": {
        "name": "Python",
        "version": "3.8.0"
    },
    "studyOID": "SilentNight",
    "metaDataVersionOID": "1.0",
    "metaDataRef": "define.xml",
    "itemGroupOID": "IG.ADSL",
    "records": 27,
    "name": "ADSL",
    "label": "Analysis Dataset of Subject-Level",
    "columns": [
        {
            "itemOID": "IT.ADSL.STUDYID",
            "name": "STUDYID",
            "label": "Study Identifier",
            "dataType": "string",
            "length": 3,
            "keySequence": 1
        },
        {
            "itemOID": "IT.ADSL.DOMAIN",
            "name": "DOMAIN",
            "label": "Domain",
            "dataType": "string",
            "length": 4,
            "keySequence": 2
        },
        {
            "itemOID": "IT.ADSL.USUBJID",
            "name": "USUBJID",
            "label": "Unique Subject Identifier",
            "dataType": "string",
            "length": 10,
            "keySequence": 3
        },
        {
            "itemOID": "IT.ADSL.SUBJID",
            "name": "SUBJID",
            "label": "Subject Identifier for the Study",
            "dataType": "integer",
            "length": 2,
            "keySequence": 4
        },
        {
            "itemOID": "IT.ADSL.SITEID",
            "name": "SITEID",
            "label": "Study Site Identifier",
            "dataType": "integer",
            "length": 1,
            "keySequence": 5
        },
        {
            "itemOID": "IT.ADSL.AGE",
            "name": "AGE",
            "label": "Age",
            "dataType": "integer",
            "length": 2,
            "keySequence": 6
        },
        {
            "itemOID": "IT.ADSL.AGEU",
            "name": "AGEU",
            "label": "Age Units",
            "dataType": "string",
            "length": 5,
            "keySequence": 7
        },
        {
            "itemOID": "IT.ADSL.BRTHDTC",
            "name": "BRTHDTC",
            "label": "Birthdate character",
            "dataType": "string",
            "length": 10,
            "keySequence": 8
        },
        {
            "itemOID": "IT.ADSL.BRTHDT",
            "name": "BRTHDT",
            "label": "Birthdate numeric",
            "dataType": "string",
            "length": 10,
            "keySequence": 9
        },
        {
            "itemOID": "IT.ADSL.SEX",
            "name": "SEX",
            "label": "Sex",
            "dataType": "string",
            "length": 1,
            "keySequence": 10
        },
        {
            "itemOID": "IT.ADSL.ASEX",
            "name": "ASEX",
            "label": "Analysis Sex",
            "dataType": "integer",
            "length": 1,
            "keySequence": 11
        },
        {
            "itemOID": "IT.ADSL.RACE",
            "name": "RACE",
            "label": "Race",
            "dataType": "string",
            "length": 41,
            "keySequence": 12
        },
        {
            "itemOID": "IT.ADSL.ARACE",
            "name": "ARACE",
            "label": "ARace",
            "dataType": "integer",
            "length": 1,
            "keySequence": 13
        },
        {
            "itemOID": "IT.ADSL.ETHNIC",
            "name": "ETHNIC",
            "label": "Ethnicity",
            "dataType": "string",
            "length": 22,
            "keySequence": 14
        },
        {
            "itemOID": "IT.ADSL.OCCUPTN",
            "name": "OCCUPTN",
            "label": "Occupation",
            "dataType": "string",
            "length": 35,
            "keySequence": 15
        },
        {
            "itemOID": "IT.ADSL.EDULVL",
            "name": "EDULVL",
            "label": "Education Level",
            "dataType": "string",
            "length": 17,
            "keySequence": 16
        },
        {
            "itemOID": "IT.ADSL.COUNTRY",
            "name": "COUNTRY",
            "label": "Country",
            "dataType": "string",
            "length": 3,
            "keySequence": 17
        },
        {
            "itemOID": "IT.ADSL.FASFL",
            "name": "FASFL",
            "label": "Full Analysis Set",
            "dataType": "integer",
            "length": 3,
            "keySequence": 18
        },
        {
            "itemOID": "IT.ADSL.SAFFL",
            "name": "SAFFL",
            "label": "Safety",
            "dataType": "string",
            "length": 1,
            "keySequence": 19
        },
        {
            "itemOID": "IT.ADSL.ITTFL",
            "name": "ITTFL",
            "label": "Intent-to-Treat",
            "dataType": "string",
            "length": 1,
            "keySequence": 20
        },
        {
            "itemOID": "IT.ADSL.COMPLFL",
            "name": "COMPLFL",
            "label": "Completed the Study",
            "dataType": "string",
            "length": 1,
            "keySequence": 21
        },
        {
            "itemOID": "IT.ADSL.ENRLFL",
            "name": "ENRLFL",
            "label": "Enrolled in the Study",
            "dataType": "string",
            "length": 1,
            "keySequence": 22
        },
        {
            "itemOID": "IT.ADSL.DTHFL",
            "name": "DTHFL",
            "label": "Death Flag",
            "dataType": "integer",
            "length": 3,
            "keySequence": 23
        },
        {
            "itemOID": "IT.ADSL.RFICDT",
            "name": "RFICDT",
            "label": "Date of Informed Consent",
            "dataType": "string",
            "length": 10,
            "keySequence": 24
        },
        {
            "itemOID": "IT.ADSL.RFPENDT",
            "name": "RFPENDT",
            "label": "Participation End Date",
            "dataType": "string",
            "length": 10,
            "keySequence": 25
        },
        {
            "itemOID": "IT.ADSL.ARM",
            "name": "ARM",
            "label": "Arm",
            "dataType": "string",
            "length": 16,
            "keySequence": 26
        },
        {
            "itemOID": "IT.ADSL.TRT01P",
            "name": "TRT01P",
            "label": "Planned treatment for Period 1",
            "dataType": "string",
            "length": 4,
            "keySequence": 27
        },
        {
            "itemOID": "IT.ADSL.TRT02P",
            "name": "TRT02P",
            "label": "Planned treatment for Period 2",
            "dataType": "string",
            "length": 5,
            "keySequence": 28
        },
        {
            "itemOID": "IT.ADSL.TRT03P",
            "name": "TRT03P",
            "label": "Planned treatment for Period 3",
            "dataType": "string",
            "length": 3,
            "keySequence": 29
        },
        {
            "itemOID": "IT.ADSL.TRT01A",
            "name": "TRT01A",
            "label": "Actual Treatment for Period 1",
            "dataType": "string",
            "length": 4,
            "keySequence": 30
        },
        {
            "itemOID": "IT.ADSL.TRT02A",
            "name": "TRT02A",
            "label": "Actual Treatment for Period 2",
            "dataType": "string",
            "length": 5,
            "keySequence": 31
        },
        {
            "itemOID": "IT.ADSL.TRT03A",
            "name": "TRT03A",
            "label": "Actual Treatment for Period 3",
            "dataType": "string",
            "length": 3,
            "keySequence": 32
        },
        {
            "itemOID": "IT.ADSL.TRTSDT",
            "name": "TRTSDT",
            "label": "Date of First Exposure Treatment",
            "dataType": "string",
            "length": 10,
            "keySequence": 33
        },
        {
            "itemOID": "IT.ADSL.TRTSDTM",
            "name": "TRTSDTM",
            "label": "Datetime of First Exposure to Treatment",
            "dataType": "string",
            "length": 10,
            "keySequence": 34
        },
        {
            "itemOID": "IT.ADSL.TR01SDT",
            "name": "TR01SDT",
            "label": "Date of First Exposure in Period 1",
            "dataType": "string",
            "length": 10,
            "keySequence": 35
        },
        {
            "itemOID": "IT.ADSL.TR02SDT",
            "name": "TR02SDT",
            "label": "Date of First Exposure in Period 2",
            "dataType": "string",
            "length": 10,
            "keySequence": 36
        },
        {
            "itemOID": "IT.ADSL.TR03SDT",
            "name": "TR03SDT",
            "label": "Date of First Exposure in Period 3",
            "dataType": "string",
            "length": 10,
            "keySequence": 37
        },
        {
            "itemOID": "IT.ADSL.TR01EDT",
            "name": "TR01EDT",
            "label": "Date of Last Exposure in Period 1",
            "dataType": "string",
            "length": 10,
            "keySequence": 38
        },
        {
            "itemOID": "IT.ADSL.TR02EDT",
            "name": "TR02EDT",
            "label": "Date of Last Exposure in Period 2",
            "dataType": "string",
            "length": 10,
            "keySequence": 39
        },
        {
            "itemOID": "IT.ADSL.TR03EDT",
            "name": "TR03EDT",
            "label": "Date of Last Exposure in Period 3",
            "dataType": "string",
            "length": 10,
            "keySequence": 40
        },
        {
            "itemOID": "IT.ADSL.TRT01PN",
            "name": "TRT01PN",
            "label": "Number for Planned treatment for Period 1",
            "dataType": "integer",
            "length": 1,
            "keySequence": 41
        },
        {
            "itemOID": "IT.ADSL.TRT02PN",
            "name": "TRT02PN",
            "label": "Number for Planned treatment for Period 2 Numeric",
            "dataType": "integer",
            "length": 1,
            "keySequence": 42
        },
        {
            "itemOID": "IT.ADSL.TRT03PN",
            "name": "TRT03PN",
            "label": "Number for Planned treatment for Period 3 Numeric",
            "dataType": "integer",
            "length": 1,
            "keySequence": 43
        },
        {
            "itemOID": "IT.ADSL.TRT01AN",
            "name": "TRT01AN",
            "label": "Number for Actual Treatment for Period 1",
            "dataType": "integer",
            "length": 1,
            "keySequence": 44
        },
        {
            "itemOID": "IT.ADSL.TRT02AN",
            "name": "TRT02AN",
            "label": "Number for Actual Treatment for Period 2",
            "dataType": "integer",
            "length": 1,
            "keySequence": 45
        },
        {
            "itemOID": "IT.ADSL.TRT03AN",
            "name": "TRT03AN",
            "label": "Number for Actual Treatment for Period 3",
            "dataType": "integer",
            "length": 1,
            "keySequence": 46
        },
        {
            "itemOID": "IT.ADSL.DCSREAS ",
            "name": "DCSREAS ",
            "label": "Reason for Discontinuation from Study",
            "dataType": "string",
            "length": 4,
            "keySequence": 47
        },
        {
            "itemOID": "IT.ADSL.DCSREASP",
            "name": "DCSREASP",
            "label": "Reason Spec for Discont from Study",
            "dataType": "string",
            "length": 17,
            "keySequence": 48
        }
    ],
    "rows": [
        [
            "XYZ",
            "ADSL",
            "XYZ-001-26",
            26,
            1,
            41,
            "Years",
            "01/18/1978",
            "01/18/1978",
            "M",
            1,
            "Asian",
            2,
            "Hispanic or Latino",
            "Clinical research associate",
            "Master's Degree",
            "USA",
            null,
            "Y",
            "Y",
            "Y",
            "Y",
            null,
            "01/08/2019",
            "01/08/2019",
            "Single Arm Study",
            "Mute",
            "MyTAP",
            "SPT",
            "Mute",
            "MyTAP",
            "SPT",
            "01/08/2019",
            "01/08/2019",
            "01/08/2019",
            null,
            null,
            "01/18/2019",
            null,
            null,
            1,
            2,
            3,
            1,
            2,
            3,
            null,
            "ADVERSE EVENT"
        ],
        [
            "XYZ",
            "ADSL",
            "XYZ-001-17",
            17,
            1,
            28,
            "Years",
            "01/15/1991",
            "01/15/1991",
            "F",
            2,
            "Native Hawaiian or Other Pacific Islander",
            4,
            "Not Hispanic or Latino",
            "Agricultural consultant",
            "High school",
            "USA",
            null,
            "Y",
            "Y",
            "Y",
            "Y",
            null,
            "01/08/2019",
            "01/08/2019",
            "Single Arm Study",
            "Mute",
            "MyTAP",
            "SPT",
            "Mute",
            "MyTAP",
            "SPT",
            null,
            null,
            null,
            "01/08/2019",
            null,
            null,
            "01/18/2019",
            null,
            1,
            2,
            3,
            1,
            2,
            3,
            null,
            null
        ],
        [
            "XYZ",
            "ADSL",
            "XYZ-001-14",
            14,
            1,
            55,
            "Years",
            "01/21/1964",
            "01/21/1964",
            "F",
            2,
            "Asian",
            2,
            "Unknown",
            "Haematologist",
            "High school",
            "USA",
            null,
            "Y",
            "Y",
            "Y",
            "Y",
            null,
            "01/07/2019",
            "01/07/2019",
            "Single Arm Study",
            "Mute",
            "MyTAP",
            "SPT",
            "Mute",
            "MyTAP",
            "SPT",
            null,
            null,
            null,
            null,
            null,
            null,
            null,
            null,
            1,
            2,
            3,
            1,
            2,
            3,
            null,
            "ADVERSE EVENT"
        ],
        [
            "XYZ",
            "ADSL",
            "XYZ-001-27",
            27,
            1,
            21,
            "Years",
            "01/07/1998",
            "01/07/1998",
            "M",
            1,
            "Asian",
            2,
            "Not Hispanic or Latino",
            "Financial risk analyst",
            "Bachelor's Degree",
            "USA",
            null,
            "Y",
            "Y",
            "Y",
            "Y",
            null,
            "01/02/2019",
            "01/02/2019",
            "Single Arm Study",
            "Mute",
            "MyTAP",
            "SPT",
            "Mute",
            "MyTAP",
            "SPT",
            "01/08/2019",
            "01/08/2019",
            "01/08/2019",
            null,
            null,
            "01/18/2019",
            null,
            null,
            1,
            2,
            3,
            1,
            2,
            3,
            null,
            null
        ],
        [
            "XYZ",
            "ADSL",
            "XYZ-001-13",
            13,
            1,
            55,
            "Years",
            "01/16/1964",
            "01/16/1964",
            "M",
            1,
            "American Indian or Alaska Native",
            1,
            "Not Hispanic or Latino",
            "Housekeeper",
            "Uneducated",
            "USA",
            null,
            "Y",
            "Y",
            "Y",
            "Y",
            null,
            "01/02/2019",
            "01/02/2019",
            "Single Arm Study",
            "Mute",
            "MyTAP",
            "SPT",
            "Mute",
            "MyTAP",
            "SPT",
            null,
            null,
            null,
            null,
            "01/08/2019",
            null,
            null,
            "01/18/2019",
            1,
            2,
            3,
            1,
            2,
            3,
            null,
            "LOST TO FOLLOW-UP"
        ],
        [
            "XYZ",
            "ADSL",
            "XYZ-001-12",
            12,
            1,
            52,
            "Years",
            "01/23/1967",
            "01/23/1967",
            "F",
            2,
            "Other",
            8,
            "Not Reported",
            "Environmental health practitioner",
            "High school",
            "USA",
            null,
            "Y",
            "Y",
            "Y",
            "Y",
            null,
            "01/10/2019",
            "01/10/2019",
            "Single Arm Study",
            "Mute",
            "MyTAP",
            "SPT",
            "Mute",
            "MyTAP",
            "SPT",
            null,
            null,
            null,
            null,
            null,
            null,
            null,
            null,
            1,
            2,
            3,
            1,
            2,
            3,
            null,
            null
        ],
        [
            "XYZ",
            "ADSL",
            "XYZ-001-7",
            7,
            1,
            45,
            "Years",
            "01/17/1974",
            "01/17/1974",
            "M",
            1,
            "Black or African American",
            3,
            "Unknown",
            "Corporate treasurer",
            "Master's Degree",
            "USA",
            null,
            "Y",
            "Y",
            "Y",
            "Y",
            null,
            "01/06/2019",
            "01/06/2019",
            "Single Arm Study",
            "Mute",
            "MyTAP",
            "SPT",
            "Mute",
            "MyTAP",
            "SPT",
            null,
            null,
            null,
            null,
            null,
            null,
            null,
            null,
            1,
            2,
            3,
            1,
            2,
            3,
            null,
            "OTHER"
        ],
        [
            "XYZ",
            "ADSL",
            "XYZ-001-29",
            29,
            1,
            29,
            "Years",
            "01/10/1990",
            "01/10/1990",
            "F",
            2,
            "Black or African American",
            3,
            "Not Hispanic or Latino",
            "Civil engineer, consulting",
            "Master's Degree",
            "USA",
            null,
            "Y",
            "Y",
            "Y",
            "Y",
            null,
            "01/03/2019",
            "01/03/2019",
            "Single Arm Study",
            "Mute",
            "MyTAP",
            "SPT",
            "Mute",
            "MyTAP",
            "SPT",
            null,
            null,
            null,
            null,
            null,
            null,
            null,
            null,
            1,
            2,
            3,
            1,
            2,
            3,
            null,
            null
        ],
        [
            "XYZ",
            "ADSL",
            "XYZ-001-15",
            15,
            1,
            51,
            "Years",
            "01/20/1968",
            "01/20/1968",
            "F",
            2,
            "Asian",
            2,
            "Unknown",
            "Sports administrator",
            "High school",
            "USA",
            null,
            "Y",
            "Y",
            "Y",
            "Y",
            null,
            "01/07/2019",
            "01/07/2019",
            "Single Arm Study",
            "Mute",
            "MyTAP",
            "SPT",
            "Mute",
            "MyTAP",
            "SPT",
            null,
            null,
            null,
            null,
            null,
            null,
            null,
            null,
            1,
            2,
            3,
            1,
            2,
            3,
            null,
            null
        ],
        [
            "XYZ",
            "ADSL",
            "XYZ-001-6",
            6,
            1,
            53,
            "Years",
            "01/16/1966",
            "01/16/1966",
            "M",
            1,
            "Not Reported",
            6,
            "Not Reported",
            "Chartered loss adjuster",
            "High school",
            "USA",
            null,
            "Y",
            "Y",
            "Y",
            "Y",
            null,
            "01/03/2019",
            "01/03/2019",
            "Single Arm Study",
            "Mute",
            "MyTAP",
            "SPT",
            "Mute",
            "MyTAP",
            "SPT",
            null,
            null,
            null,
            null,
            null,
            null,
            null,
            null,
            1,
            2,
            3,
            1,
            2,
            3,
            null,
            null
        ],
        [
            "XYZ",
            "ADSL",
            "XYZ-001-31",
            31,
            1,
            44,
            "Years",
            "01/15/1975",
            "01/15/1975",
            "M",
            1,
            "Other",
            8,
            "Hispanic or Latino",
            "Therapeutic radiographer",
            "Doctorate",
            "USA",
            null,
            "Y",
            "Y",
            "Y",
            "Y",
            null,
            "01/04/2019",
            "01/04/2019",
            "Single Arm Study",
            "Mute",
            "MyTAP",
            "SPT",
            "Mute",
            "MyTAP",
            "SPT",
            null,
            null,
            null,
            null,
            null,
            null,
            null,
            null,
            1,
            2,
            3,
            1,
            2,
            3,
            null,
            "OTHER"
        ],
        [
            "XYZ",
            "ADSL",
            "XYZ-001-8",
            8,
            1,
            23,
            "Years",
            "01/12/1996",
            "01/12/1996",
            "M",
            1,
            "White",
            5,
            "Not Reported",
            "Construction Worker",
            "Uneducated",
            "USA",
            null,
            "Y",
            "Y",
            "Y",
            "Y",
            null,
            "01/06/2019",
            "01/06/2019",
            "Single Arm Study",
            "Mute",
            "MyTAP",
            "SPT",
            "Mute",
            "MyTAP",
            "SPT",
            null,
            null,
            null,
            null,
            null,
            null,
            null,
            null,
            1,
            2,
            3,
            1,
            2,
            3,
            null,
            null
        ],
        [
            "XYZ",
            "ADSL",
            "XYZ-001-38",
            38,
            1,
            51,
            "Years",
            "01/22/1968",
            "01/22/1968",
            "F",
            2,
            "American Indian or Alaska Native",
            1,
            "Not Hispanic or Latino",
            "Pharmacist, hospital",
            "Master's Degree",
            "USA",
            null,
            "Y",
            "Y",
            "Y",
            "Y",
            null,
            "01/09/2019",
            "01/09/2019",
            "Single Arm Study",
            "Mute",
            "MyTAP",
            "SPT",
            "Mute",
            "MyTAP",
            "SPT",
            null,
            null,
            null,
            null,
            null,
            null,
            null,
            null,
            1,
            2,
            3,
            1,
            2,
            3,
            null,
            null
        ],
        [
            "XYZ",
            "ADSL",
            "XYZ-001-35",
            35,
            1,
            51,
            "Years",
            "01/23/1968",
            "01/23/1968",
            "F",
            2,
            "Native Hawaiian or Other Pacific Islander",
            4,
            "Hispanic or Latino",
            "Ambulance person",
            "Doctorate",
            "USA",
            null,
            "Y",
            "Y",
            "Y",
            "Y",
            null,
            "01/10/2019",
            "01/10/2019",
            "Single Arm Study",
            "Mute",
            "MyTAP",
            "SPT",
            "Mute",
            "MyTAP",
            "SPT",
            null,
            null,
            null,
            null,
            null,
            null,
            null,
            null,
            1,
            2,
            3,
            1,
            2,
            3,
            null,
            null
        ],
        [
            "XYZ",
            "ADSL",
            "XYZ-001-16",
            16,
            1,
            53,
            "Years",
            "01/23/1966",
            "01/23/1966",
            "M",
            1,
            "Other",
            8,
            "Not Reported",
            "Air traffic controller",
            "Bachelor's Degree",
            "USA",
            null,
            "Y",
            "Y",
            "Y",
            "Y",
            null,
            "01/10/2019",
            "01/10/2019",
            "Single Arm Study",
            "Mute",
            "MyTAP",
            "SPT",
            "Mute",
            "MyTAP",
            "SPT",
            null,
            null,
            null,
            null,
            null,
            null,
            null,
            null,
            1,
            2,
            3,
            1,
            2,
            3,
            null,
            null
        ],
        [
            "XYZ",
            "ADSL",
            "XYZ-001-28",
            28,
            1,
            32,
            "Years",
            "01/17/1987",
            "01/17/1987",
            "F",
            2,
            "Not Reported",
            6,
            "Not Hispanic or Latino",
            "Chief Financial Officer",
            "Master's Degree",
            "USA",
            null,
            "Y",
            "Y",
            "Y",
            "Y",
            null,
            "01/09/2019",
            "01/09/2019",
            "Single Arm Study",
            "Mute",
            "MyTAP",
            "SPT",
            "Mute",
            "MyTAP",
            "SPT",
            null,
            null,
            null,
            null,
            null,
            null,
            null,
            null,
            1,
            2,
            3,
            1,
            2,
            3,
            null,
            null
        ],
        [
            "XYZ",
            "ADSL",
            "XYZ-001-20",
            20,
            1,
            51,
            "Years",
            "01/22/1968",
            "01/22/1968",
            "M",
            1,
            "Black or African American",
            3,
            "Not Hispanic or Latino",
            "Engineering geologist",
            "Bachelor's Degree",
            "USA",
            null,
            "Y",
            "Y",
            "Y",
            "Y",
            null,
            "01/09/2019",
            "01/09/2019",
            "Single Arm Study",
            "Mute",
            "MyTAP",
            "SPT",
            "Mute",
            "MyTAP",
            "SPT",
            null,
            null,
            null,
            null,
            null,
            null,
            null,
            null,
            1,
            2,
            3,
            1,
            2,
            3,
            null,
            "LOST TO FOLLOW-UP"
        ],
        [
            "XYZ",
            "ADSL",
            "XYZ-001-1",
            1,
            1,
            54,
            "Years",
            "01/18/1965",
            "01/18/1965",
            "M",
            1,
            "Unknown",
            7,
            "Not Reported",
            "Construction Worker",
            "Uneducated",
            "USA",
            null,
            "Y",
            "Y",
            "Y",
            "Y",
            null,
            "01/05/2019",
            "01/05/2019",
            "Single Arm Study",
            "Mute",
            "MyTAP",
            "SPT",
            "Mute",
            "MyTAP",
            "SPT",
            null,
            null,
            null,
            null,
            null,
            null,
            null,
            null,
            1,
            2,
            3,
            1,
            2,
            3,
            null,
            null
        ],
        [
            "XYZ",
            "ADSL",
            "XYZ-001-39",
            39,
            1,
            42,
            "Years",
            "01/13/1977",
            "01/13/1977",
            "M",
            1,
            "Not Reported",
            6,
            "Hispanic or Latino",
            "Exhibitions officer, museum/gallery",
            "Bachelor's Degree",
            "USA",
            null,
            "Y",
            "Y",
            "Y",
            "Y",
            null,
            "01/03/2019",
            "01/03/2019",
            "Single Arm Study",
            "Mute",
            "MyTAP",
            "SPT",
            "Mute",
            "MyTAP",
            "SPT",
            null,
            null,
            null,
            null,
            null,
            null,
            null,
            null,
            1,
            2,
            3,
            1,
            2,
            3,
            null,
            null
        ],
        [
            "XYZ",
            "ADSL",
            "XYZ-001-21",
            21,
            1,
            47,
            "Years",
            "01/13/1972",
            "01/13/1972",
            "M",
            1,
            "American Indian or Alaska Native",
            1,
            "Not Reported",
            "Risk analyst",
            "Doctorate",
            "USA",
            null,
            "Y",
            "Y",
            "Y",
            "Y",
            null,
            "01/01/2019",
            "01/01/2019",
            "Single Arm Study",
            "Mute",
            "MyTAP",
            "SPT",
            "Mute",
            "MyTAP",
            "SPT",
            null,
            null,
            null,
            null,
            null,
            null,
            null,
            null,
            1,
            2,
            3,
            1,
            2,
            3,
            null,
            null
        ],
        [
            "XYZ",
            "ADSL",
            "XYZ-001-5",
            5,
            1,
            29,
            "Years",
            "01/13/1990",
            "01/13/1990",
            "F",
            2,
            "Asian",
            2,
            "Not Hispanic or Latino",
            "Security Guard",
            "Uneducated",
            "USA",
            null,
            "Y",
            "Y",
            "Y",
            "Y",
            null,
            "01/06/2019",
            "01/06/2019",
            "Single Arm Study",
            "Mute",
            "MyTAP",
            "SPT",
            "Mute",
            "MyTAP",
            "SPT",
            null,
            null,
            null,
            null,
            null,
            null,
            null,
            null,
            1,
            2,
            3,
            1,
            2,
            3,
            null,
            null
        ],
        [
            "XYZ",
            "ADSL",
            "XYZ-001-32",
            32,
            1,
            53,
            "Years",
            "01/15/1966",
            "01/15/1966",
            "M",
            1,
            "Native Hawaiian or Other Pacific Islander",
            4,
            "Unknown",
            "Town planner",
            "Doctorate",
            "USA",
            null,
            "Y",
            "Y",
            "Y",
            "Y",
            null,
            "01/02/2019",
            "01/02/2019",
            "Single Arm Study",
            "Mute",
            "MyTAP",
            "SPT",
            "Mute",
            "MyTAP",
            "SPT",
            null,
            null,
            null,
            null,
            null,
            null,
            null,
            null,
            1,
            2,
            3,
            1,
            2,
            3,
            null,
            null
        ],
        [
            "XYZ",
            "ADSL",
            "XYZ-001-18",
            18,
            1,
            49,
            "Years",
            "01/21/1970",
            "01/21/1970",
            "M",
            1,
            "Other",
            8,
            "Not Hispanic or Latino",
            "Aid worker",
            "Master's Degree",
            "USA",
            null,
            "Y",
            "Y",
            "Y",
            "Y",
            null,
            "01/09/2019",
            "01/09/2019",
            "Single Arm Study",
            "Mute",
            "MyTAP",
            "SPT",
            "Mute",
            "MyTAP",
            "SPT",
            null,
            null,
            null,
            null,
            null,
            null,
            null,
            null,
            1,
            2,
            3,
            1,
            2,
            3,
            null,
            null
        ],
        [
            "XYZ",
            "ADSL",
            "XYZ-001-19",
            19,
            1,
            25,
            "Years",
            "01/11/1994",
            "01/11/1994",
            "F",
            2,
            "Native Hawaiian or Other Pacific Islander",
            4,
            "Not Reported",
            "Housekeeper",
            "Uneducated",
            "USA",
            null,
            "Y",
            "Y",
            "Y",
            "Y",
            null,
            "01/05/2019",
            "01/05/2019",
            "Single Arm Study",
            "Mute",
            "MyTAP",
            "SPT",
            "Mute",
            "MyTAP",
            "SPT",
            null,
            null,
            null,
            null,
            null,
            null,
            null,
            null,
            1,
            2,
            3,
            1,
            2,
            3,
            null,
            null
        ],
        [
            "XYZ",
            "ADSL",
            "XYZ-001-23",
            23,
            1,
            49,
            "Years",
            "01/21/1970",
            "01/21/1970",
            "F",
            2,
            "Unknown",
            7,
            "Not Reported",
            "Surveyor, mining",
            "Bachelor's Degree",
            "USA",
            null,
            "Y",
            "Y",
            "Y",
            "Y",
            null,
            "01/09/2019",
            "01/09/2019",
            "Single Arm Study",
            "Mute",
            "MyTAP",
            "SPT",
            "Mute",
            "MyTAP",
            "SPT",
            null,
            null,
            null,
            null,
            null,
            null,
            null,
            null,
            1,
            2,
            3,
            1,
            2,
            3,
            null,
            "LOST TO FOLLOW-UP"
        ],
        [
            "XYZ",
            "ADSL",
            "XYZ-001-2",
            2,
            1,
            25,
            "Years",
            "01/09/1994",
            "01/09/1994",
            "F",
            2,
            "Other",
            8,
            "Hispanic or Latino",
            "Engineer, civil (contracting)",
            "High school",
            "USA",
            null,
            "Y",
            "Y",
            "Y",
            "Y",
            null,
            "01/03/2019",
            "01/03/2019",
            "Single Arm Study",
            "Mute",
            "MyTAP",
            "SPT",
            "Mute",
            "MyTAP",
            "SPT",
            null,
            null,
            null,
            null,
            null,
            null,
            null,
            null,
            1,
            2,
            3,
            1,
            2,
            3,
            null,
            null
        ],
        [
            "XYZ",
            "ADSL",
            "XYZ-001-34",
            34,
            1,
            48,
            "Years",
            "01/13/1971",
            "01/13/1971",
            "F",
            2,
            "Asian",
            2,
            "Not Hispanic or Latino",
            "Sports administrator",
            "Bachelor's Degree",
            "USA",
            null,
            "Y",
            "Y",
            "Y",
            "Y",
            null,
            "01/01/2019",
            "01/01/2019",
            "Single Arm Study",
            "Mute",
            "MyTAP",
            "SPT",
            "Mute",
            "MyTAP",
            "SPT",
            null,
            null,
            null,
            null,
            null,
            null,
            null,
            null,
            1,
            2,
            3,
            1,
            2,
            3,
            null,
            null
        ]
    ]
}