{
    "datasetJSONCreationDateTime": "2025-01-15T11:52:49",
    "datasetJSONVersion": "1.1.0",
    "fileOID": "XYZ_SDTM_ADCM",
    "dbLastModifiedDateTime": "2025-01-15T11:52:49",
    "originator": "EDA Clinical",
    "sourceSystem": {
        "name": "Python",
        "version": "3.8.0"
    },
    "studyOID": "SilentNight",
    "metaDataVersionOID": "1.0",
    "metaDataRef": "define.xml",
    "itemGroupOID": "IG.ADCM",
    "records": 9,
    "name": "ADCM",
    "label": "Analysis Dataset of Concomitant Medication",
    "columns": [
        {
            "itemOID": "IT.ADCM.STUDYID",
            "name": "STUDYID",
            "label": "Study Identifier",
            "dataType": "string",
            "length": 3,
            "keySequence": 1
        },
        {
            "itemOID": "IT.ADCM.SITEID",
            "name": "SITEID",
            "label": "Site Identifier",
            "dataType": "integer",
            "length": 1,
            "keySequence": 2
        },
        {
            "itemOID": "IT.ADCM.DOMAIN",
            "name": "DOMAIN",
            "label": "Domain",
            "dataType": "string",
            "length": 4,
            "keySequence": 3
        },
        {
            "itemOID": "IT.ADCM.SUBJID",
            "name": "SUBJID",
            "label": "Subject Identifier",
            "dataType": "integer",
            "length": 2,
            "keySequence": 4
        },
        {
            "itemOID": "IT.ADCM.USUBJID",
            "name": "USUBJID",
            "label": "Unique Subject Identifier",
            "dataType": "string",
            "length": 10,
            "keySequence": 5
        },
        {
            "itemOID": "IT.ADCM.CMYN",
            "name": "CMYN",
            "label": "Concomitant Medication Yes/No",
            "dataType": "integer",
            "length": 3,
            "keySequence": 6
        },
        {
            "itemOID": "IT.ADCM.CMTRT",
            "name": "CMTRT",
            "label": "Reported Name of Drug, Med, or Therapy",
            "dataType": "string",
            "length": 23,
            "keySequence": 7
        },
        {
            "itemOID": "IT.ADCM.CMDECOD",
            "name": "CMDECOD",
            "label": "Standardized Medication Name",
            "dataType": "integer",
            "length": 3,
            "keySequence": 8
        },
        {
            "itemOID": "IT.ADCM.CMINDC",
            "name": "CMINDC",
            "label": "Indication",
            "dataType": "string",
            "length": 13,
            "keySequence": 9
        },
        {
            "itemOID": "IT.ADCM.CMDOSE",
            "name": "CMDOSE",
            "label": "Dose",
            "dataType": "integer",
            "length": 5,
            "keySequence": 10
        },
        {
            "itemOID": "IT.ADCM.CMDOSTXT",
            "name": "CMDOSTXT",
            "label": "Dose Text",
            "dataType": "integer",
            "length": 3,
            "keySequence": 11
        },
        {
            "itemOID": "IT.ADCM.CMDOSU",
            "name": "CMDOSU",
            "label": "Dose Units",
            "dataType": "string",
            "length": 2,
            "keySequence": 12
        },
        {
            "itemOID": "IT.ADCM.CMDOSFRM",
            "name": "CMDOSFRM",
            "label": "Dose Form",
            "dataType": "string",
            "length": 10,
            "keySequence": 13
        },
        {
            "itemOID": "IT.ADCM.CMDOSFRQ",
            "name": "CMDOSFRQ",
            "label": "Dosing Frequency per Interval",
            "dataType": "string",
            "length": 3,
            "keySequence": 14
        },
        {
            "itemOID": "IT.ADCM.CMROUTE",
            "name": "CMROUTE",
            "label": "Route of Administration",
            "dataType": "string",
            "length": 5,
            "keySequence": 15
        },
        {
            "itemOID": "IT.ADCM.CMONGO",
            "name": "CMONGO",
            "label": "Ongoing",
            "dataType": "string",
            "length": 4,
            "keySequence": 16
        },
        {
            "itemOID": "IT.ADCM.CMSTDTC",
            "name": "CMSTDTC",
            "label": "Start Date/Time of Medication",
            "dataType": "string",
            "length": 10,
            "keySequence": 17
        },
        {
            "itemOID": "IT.ADCM.ASTDT",
            "name": "ASTDT",
            "label": "Analysis Start Date",
            "dataType": "integer",
            "length": 3,
            "keySequence": 18
        },
        {
            "itemOID": "IT.ADCM.ASTDTF",
            "name": "ASTDTF",
            "label": "Analysis Start Date Imputation Flag",
            "dataType": "integer",
            "length": 3,
            "keySequence": 19
        },
        {
            "itemOID": "IT.ADCM.CMENDTC",
            "name": "CMENDTC",
            "label": "End Date/Time of Medication",
            "dataType": "string",
            "length": 10,
            "keySequence": 20
        },
        {
            "itemOID": "IT.ADCM.AENDT",
            "name": "AENDT",
            "label": "Analysis End Date",
            "dataType": "integer",
            "length": 3,
            "keySequence": 21
        },
        {
            "itemOID": "IT.ADCM.AENDTF",
            "name": "AENDTF",
            "label": "Analysis End Date Imputation Flag",
            "dataType": "integer",
            "length": 3,
            "keySequence": 22
        },
        {
            "itemOID": "IT.ADCM.ADUR",
            "name": "ADUR",
            "label": "Analysis Duration",
            "dataType": "integer",
            "length": 3,
            "keySequence": 23
        },
        {
            "itemOID": "IT.ADCM.TRT01A",
            "name": "TRT01A",
            "label": "Treatment Period 01 Actual",
            "dataType": "string",
            "length": 4,
            "keySequence": 24
        },
        {
            "itemOID": "IT.ADCM.TRT02A",
            "name": "TRT02A",
            "label": "Treatment Period 02 Actual",
            "dataType": "string",
            "length": 5,
            "keySequence": 25
        },
        {
            "itemOID": "IT.ADCM.TRT03A",
            "name": "TRT03A",
            "label": "Treatment Period 03 Actual",
            "dataType": "string",
            "length": 3,
            "keySequence": 26
        },
        {
            "itemOID": "IT.ADCM.TRT01P",
            "name": "TRT01P",
            "label": "Treatment Period 01 Planned",
            "dataType": "string",
            "length": 4,
            "keySequence": 27
        },
        {
            "itemOID": "IT.ADCM.TRT02P",
            "name": "TRT02P",
            "label": "Treatment Period 02 Planned",
            "dataType": "string",
            "length": 5,
            "keySequence": 28
        },
        {
            "itemOID": "IT.ADCM.TRT03P",
            "name": "TRT03P",
            "label": "Treatment Period 03 Planned",
            "dataType": "string",
            "length": 3,
            "keySequence": 29
        },
        {
            "itemOID": "IT.ADCM.SCRNFL",
            "name": "SCRNFL",
            "label": "Screening Flag",
            "dataType": "integer",
            "length": 3,
            "keySequence": 30
        },
        {
            "itemOID": "IT.ADCM.ENRLFL",
            "name": "ENRLFL",
            "label": "Enrollment Flag",
            "dataType": "string",
            "length": 1,
            "keySequence": 31
        },
        {
            "itemOID": "IT.ADCM.ITTFL",
            "name": "ITTFL",
            "label": "Intent-to-Treat Flag",
            "dataType": "string",
            "length": 1,
            "keySequence": 32
        },
        {
            "itemOID": "IT.ADCM.SAFFL",
            "name": "SAFFL",
            "label": "Safety Population Flag",
            "dataType": "string",
            "length": 1,
            "keySequence": 33
        },
        {
            "itemOID": "IT.ADCM.FASFL",
            "name": "FASFL",
            "label": "Full Analysis Set Flag",
            "dataType": "integer",
            "length": 3,
            "keySequence": 34
        },
        {
            "itemOID": "IT.ADCM.DTHFL",
            "name": "DTHFL",
            "label": "Death Flag",
            "dataType": "integer",
            "length": 3,
            "keySequence": 35
        },
        {
            "itemOID": "IT.ADCM.CONCOMFL",
            "name": "CONCOMFL",
            "label": "Concomitant Medication Flag",
            "dataType": "integer",
            "length": 3,
            "keySequence": 36
        },
        {
            "itemOID": "IT.ADCM.PRIORFL",
            "name": "PRIORFL",
            "label": "Prior Medication Flag",
            "dataType": "integer",
            "length": 3,
            "keySequence": 37
        },
        {
            "itemOID": "IT.ADCM.FUPFL",
            "name": "FUPFL",
            "label": "Follow-Up Flag",
            "dataType": "integer",
            "length": 3,
            "keySequence": 38
        },
        {
            "itemOID": "IT.ADCM.CMSEQ",
            "name": "CMSEQ",
            "label": "Sequence Number",
            "dataType": "integer",
            "length": 1,
            "keySequence": 39
        }
    ],
    "rows": [
        [
            "XYZ",
            1,
            "ADCM",
            26,
            "XYZ-001-26",
            null,
            "Metformin HCL",
            null,
            "Diabetes",
            500.0,
            null,
            "mg",
            "Tablet",
            "BID",
            "Oral",
            "Y",
            "08/18/1992",
            null,
            null,
            null,
            null,
            null,
            null,
            "Mute",
            "MyTAP",
            "SPT",
            "Mute",
            "MyTAP",
            "SPT",
            null,
            "Y",
            "Y",
            "Y",
            null,
            null,
            null,
            null,
            null,
            4
        ],
        [
            "XYZ",
            1,
            "ADCM",
            27,
            "XYZ-001-27",
            null,
            "Choltran",
            null,
            "Jaundice",
            4.0,
            null,
            "g",
            "Suspension",
            "BID",
            "\tOral",
            null,
            "01/20/2008",
            null,
            null,
            "05/14/2008",
            null,
            null,
            null,
            "Mute",
            "MyTAP",
            "SPT",
            "Mute",
            "MyTAP",
            "SPT",
            null,
            "Y",
            "Y",
            "Y",
            null,
            null,
            null,
            null,
            null,
            5
        ],
        [
            "XYZ",
            1,
            "ADCM",
            15,
            "XYZ-001-15",
            null,
            "Ibuprofen",
            null,
            "Fracture",
            400.0,
            null,
            "mg",
            "Tablet",
            "TID",
            "Oral",
            null,
            "05/08/1978",
            null,
            null,
            "06/13/1978",
            null,
            null,
            null,
            "Mute",
            "MyTAP",
            "SPT",
            "Mute",
            "MyTAP",
            "SPT",
            null,
            "Y",
            "Y",
            "Y",
            null,
            null,
            null,
            null,
            null,
            2
        ],
        [
            "XYZ",
            1,
            "ADCM",
            15,
            "XYZ-001-15",
            null,
            "Naproxen",
            null,
            "Fracture",
            500.0,
            null,
            "mg",
            "Tablet",
            "BID",
            "Oral",
            null,
            "05/08/1978",
            null,
            null,
            "06/13/1978",
            null,
            null,
            null,
            "Mute",
            "MyTAP",
            "SPT",
            "Mute",
            "MyTAP",
            "SPT",
            null,
            "Y",
            "Y",
            "Y",
            null,
            null,
            null,
            null,
            null,
            2
        ],
        [
            "XYZ",
            1,
            "ADCM",
            15,
            "XYZ-001-15",
            null,
            "Paracetamol",
            null,
            "Pain Relief",
            500.0,
            null,
            "mg",
            "Tablet",
            "BID",
            "Oral",
            null,
            "05/08/1978",
            null,
            null,
            "06/13/1978",
            null,
            null,
            null,
            "Mute",
            "MyTAP",
            "SPT",
            "Mute",
            "MyTAP",
            "SPT",
            null,
            "Y",
            "Y",
            "Y",
            null,
            null,
            null,
            null,
            null,
            2
        ],
        [
            "XYZ",
            1,
            "ADCM",
            5,
            "XYZ-001-5",
            null,
            "Losartan C",
            null,
            "Hypertension",
            50.0,
            null,
            "mg",
            "Tablet",
            "QD",
            "Oral",
            "Y",
            "09/25/2001",
            null,
            null,
            null,
            null,
            null,
            null,
            "Mute",
            "MyTAP",
            "SPT",
            "Mute",
            "MyTAP",
            "SPT",
            null,
            "Y",
            "Y",
            "Y",
            null,
            null,
            null,
            null,
            null,
            1
        ],
        [
            "XYZ",
            1,
            "ADCM",
            5,
            "XYZ-001-5",
            null,
            "Pantoprazole",
            null,
            "Acid Reflux",
            40.0,
            null,
            "mg",
            "Tablet",
            "QD",
            "Oral",
            "Y",
            "09/25/2001",
            null,
            null,
            null,
            null,
            null,
            null,
            "Mute",
            "MyTAP",
            "SPT",
            "Mute",
            "MyTAP",
            "SPT",
            null,
            "Y",
            "Y",
            "Y",
            null,
            null,
            null,
            null,
            null,
            1
        ],
        [
            "XYZ",
            1,
            "ADCM",
            19,
            "XYZ-001-19",
            null,
            "Piperacillin-Tazobactam",
            null,
            "Appendicities",
            4.5,
            null,
            "g",
            "injectable",
            "BID",
            "Other",
            null,
            "01/21/2008",
            null,
            null,
            "02/10/2008",
            null,
            null,
            null,
            "Mute",
            "MyTAP",
            "SPT",
            "Mute",
            "MyTAP",
            "SPT",
            null,
            "Y",
            "Y",
            "Y",
            null,
            null,
            null,
            null,
            null,
            3
        ],
        [
            "XYZ",
            1,
            "ADCM",
            19,
            "XYZ-001-19",
            null,
            "Pantoprazole",
            null,
            "Peptic ulcer",
            40.0,
            null,
            "mg",
            "Tablet",
            "BID",
            "Oral",
            null,
            "01/21/2008",
            null,
            null,
            "05/10/2008",
            null,
            null,
            null,
            "Mute",
            "MyTAP",
            "SPT",
            "Mute",
            "MyTAP",
            "SPT",
            null,
            "Y",
            "Y",
            "Y",
            null,
            null,
            null,
            null,
            null,
            3
        ]
    ]
}