{
    "datasetJSONCreationDateTime": "2025-01-15T12:02:52",
    "datasetJSONVersion": "1.1.0",
    "fileOID": "XYZ_SDTM_ADIE",
    "dbLastModifiedDateTime": "2025-01-15T12:02:52",
    "originator": "EDA Clinical",
    "sourceSystem": {
        "name": "Python",
        "version": "3.8.0"
    },
    "studyOID": "SilentNight",
    "metaDataVersionOID": "1.0",
    "metaDataRef": "define.xml",
    "itemGroupOID": "IG.ADIE",
    "records": 40,
    "name": "ADIE",
    "label": "Analysis Dataset of Inclusion and Exclusion Criteria",
    "columns": [
        {
            "itemOID": "IT.ADIE.STUDYID",
            "name": "STUDYID",
            "label": "Study Identifier",
            "dataType": "string",
            "length": 3,
            "keySequence": 1
        },
        {
            "itemOID": "IT.ADIE.DOMAIN",
            "name": "DOMAIN",
            "label": "Domain",
            "dataType": "string",
            "length": 4,
            "keySequence": 2
        },
        {
            "itemOID": "IT.ADIE.SITEID",
            "name": "SITEID",
            "label": "Site Identifier",
            "dataType": "integer",
            "length": 3,
            "keySequence": 3
        },
        {
            "itemOID": "IT.ADIE.SUBJID",
            "name": "SUBJID",
            "label": "Subject Identifier",
            "dataType": "integer",
            "length": 4,
            "keySequence": 4
        },
        {
            "itemOID": "IT.ADIE.USUBJID",
            "name": "USUBJID",
            "label": "Unique Subject Identifier",
            "dataType": "string",
            "length": 10,
            "keySequence": 5
        },
        {
            "itemOID": "IT.ADIE.IESEQ",
            "name": "IESEQ",
            "label": "Sequence Number",
            "dataType": "integer",
            "length": 2,
            "keySequence": 6
        },
        {
            "itemOID": "IT.ADIE.IECAT",
            "name": "IECAT",
            "label": "Inclusion/Exclusion Category",
            "dataType": "string",
            "length": 9,
            "keySequence": 7
        },
        {
            "itemOID": "IT.ADIE.PARAM",
            "name": "PARAM",
            "label": "Parameter",
            "dataType": "string",
            "length": 196,
            "keySequence": 8
        },
        {
            "itemOID": "IT.ADIE.PARAMCD",
            "name": "PARAMCD",
            "label": "Parameter Code",
            "dataType": "string",
            "length": 8,
            "keySequence": 9
        },
        {
            "itemOID": "IT.ADIE.AVAL",
            "name": "AVAL",
            "label": "Analysis Value",
            "dataType": "string",
            "length": 4,
            "keySequence": 10
        },
        {
            "itemOID": "IT.ADIE.IEDT",
            "name": "IEDT",
            "label": "Date of Collection",
            "dataType": "string",
            "length": 10,
            "keySequence": 11
        },
        {
            "itemOID": "IT.ADIE.INCLFL",
            "name": "INCLFL",
            "label": "Inclusion Flag",
            "dataType": "string",
            "length": 4,
            "keySequence": 12
        },
        {
            "itemOID": "IT.ADIE.EXCLFL",
            "name": "EXCLFL",
            "label": "Exclusion Flag",
            "dataType": "string",
            "length": 4,
            "keySequence": 13
        }
    ],
    "rows": [
        [
            "XYZ",
            "ADIE",
            1.0,
            1.0,
            "XYZ-001-1",
            1,
            "Inclusion",
            "Adults aged 21 to 55",
            "SNINCL01",
            "Y",
            "01/05/2019",
            "Y",
            null
        ],
        [
            "XYZ",
            "ADIE",
            1.0,
            2.0,
            "XYZ-001-2",
            2,
            "Inclusion",
            "Able and willing to provide written informed consent",
            "SNINCL02",
            "Y",
            "01/03/2019",
            "Y",
            null
        ],
        [
            "XYZ",
            "ADIE",
            null,
            null,
            "XYZ-001-3",
            3,
            "Inclusion",
            "Able to read and write in English",
            "SNINCL03",
            "N",
            "01/04/2019",
            "Y",
            null
        ],
        [
            "XYZ",
            "ADIE",
            null,
            null,
            "XYZ-001-4",
            4,
            "Inclusion",
            "History of Snoring for more than 6 month (by self-report)",
            "SNINCL04",
            "N",
            "01/09/2019",
            "Y",
            null
        ],
        [
            "XYZ",
            "ADIE",
            1.0,
            5.0,
            "XYZ-001-5",
            5,
            "Inclusion",
            "Sleep with a bed partner for at least 4 night per week (by self-report)",
            "SNINCL05",
            "Y",
            "01/06/2019",
            "Y",
            null
        ],
        [
            "XYZ",
            "ADIE",
            1.0,
            6.0,
            "XYZ-001-6",
            6,
            "Inclusion",
            "Told by bed partner that snoring frequently disturbs his or her sleep (by self-report)",
            "SNINCL06",
            "Y",
            "01/03/2019",
            "Y",
            null
        ],
        [
            "XYZ",
            "ADIE",
            1.0,
            7.0,
            "XYZ-001-7",
            7,
            "Inclusion",
            "Have seen a dentist within 12 months (by self-report)",
            "SNINCL07",
            "Y",
            "01/06/2019",
            "Y",
            null
        ],
        [
            "XYZ",
            "ADIE",
            1.0,
            8.0,
            "XYZ-001-8",
            8,
            "Inclusion",
            "Willing to not use any anti-snoring aids that are not associated with the study (by self-report)",
            "SNINCL08",
            "Y",
            "01/06/2019",
            "Y",
            null
        ],
        [
            "XYZ",
            "ADIE",
            null,
            null,
            "XYZ-001-9",
            9,
            "Inclusion",
            "Has purchased or used or bed partner has purchased an anti-snoring product in the past (by self-report)",
            "SNINCL09",
            "N",
            "01/04/2019",
            "Y",
            null
        ],
        [
            "XYZ",
            "ADIE",
            null,
            null,
            "XYZ-001-10",
            10,
            "Exclusion",
            "Scored higher than a 9 on the Modified Snore Scale Score (MSSS>9)",
            "SNEXCL01",
            "Y",
            "01/06/2019",
            null,
            "Y"
        ],
        [
            "XYZ",
            "ADIE",
            null,
            null,
            "XYZ-001-11",
            11,
            "Exclusion",
            "Scored higher than a 6 on the OSA 50 screener (OSA50>6)",
            "SNEXCL02",
            "Y",
            "01/09/2019",
            null,
            "Y"
        ],
        [
            "XYZ",
            "ADIE",
            1.0,
            12.0,
            "XYZ-001-12",
            12,
            "Exclusion",
            "The presence of physical or mental limitations that would limit the ability to use the anti-snoring solutions",
            "SNEXCL03",
            "N",
            "01/10/2019",
            null,
            "Y"
        ],
        [
            "XYZ",
            "ADIE",
            1.0,
            13.0,
            "XYZ-001-13",
            13,
            "Exclusion",
            "Any unstable medical condition like congestive heart failure, neuromuscular disease, renal failure, or cancer (as determined by self-report and reviewed by the study PI)",
            "SNEXCL04",
            "N",
            "01/02/2019",
            null,
            "Y"
        ],
        [
            "XYZ",
            "ADIE",
            1.0,
            14.0,
            "XYZ-001-14",
            14,
            "Exclusion",
            "Any severe respiratory condition (like an exacerbation of Chronic Obstructive Pulmonary Diseases, bronchitis, sinusitus, respiratory failure or insufficiency or patients requiring oxygen therapy)",
            "SNEXCL05",
            "N",
            "01/07/2019",
            null,
            "Y"
        ],
        [
            "XYZ",
            "ADIE",
            1.0,
            15.0,
            "XYZ-001-15",
            15,
            "Exclusion",
            "Known history of Obstructive Sleep Apnea (OSA) or Central Sleep Apnea Syndrome (by self-report)",
            "SNEXCL06",
            "N",
            "01/07/2019",
            null,
            "Y"
        ],
        [
            "XYZ",
            "ADIE",
            1.0,
            16.0,
            "XYZ-001-16",
            16,
            "Exclusion",
            "Only able to sleep in the supine (flat on one\u2019s back) position (by self-report)",
            "SNEXCL07",
            "N",
            "01/10/2019",
            null,
            "Y"
        ],
        [
            "XYZ",
            "ADIE",
            1.0,
            17.0,
            "XYZ-001-17",
            17,
            "Exclusion",
            "Actively suffering from an upper respiratory infection (by self-report)",
            "SNEXCL08",
            "N",
            "01/08/2019",
            null,
            "Y"
        ],
        [
            "XYZ",
            "ADIE",
            1.0,
            18.0,
            "XYZ-001-18",
            18,
            "Exclusion",
            "Have a planned medical or dental procedure involving the head, neck, face (eyes, ears, nose, teeth, mouth), or lungs during the trial period (by self-report)",
            "SNEXCL09",
            "N",
            "01/09/2019",
            null,
            "Y"
        ],
        [
            "XYZ",
            "ADIE",
            1.0,
            19.0,
            "XYZ-001-19",
            19,
            "Exclusion",
            "Under active treatment for an active dental problem by a dentist or orthodontist",
            "SNEXCL10",
            "N",
            "01/05/2019",
            null,
            "Y"
        ],
        [
            "XYZ",
            "ADIE",
            1.0,
            20.0,
            "XYZ-001-20",
            20,
            "Exclusion",
            "Have one or more of the following dental issues (by self-report): removable dental appliances; TMJ issues; loose or broken teeth, loose crowns or fillings; less than 8 natural upper or lower teeth",
            "SNEXCL11",
            "N",
            "01/09/2019",
            null,
            "Y"
        ],
        [
            "XYZ",
            "ADIE",
            1.0,
            21.0,
            "XYZ-001-21",
            21,
            null,
            null,
            null,
            null,
            "01/01/2019",
            null,
            null
        ],
        [
            "XYZ",
            "ADIE",
            null,
            null,
            "XYZ-001-22",
            22,
            null,
            null,
            null,
            null,
            "01/02/2019",
            null,
            null
        ],
        [
            "XYZ",
            "ADIE",
            1.0,
            23.0,
            "XYZ-001-23",
            23,
            null,
            null,
            null,
            null,
            "01/09/2019",
            null,
            null
        ],
        [
            "XYZ",
            "ADIE",
            null,
            null,
            "XYZ-001-24",
            24,
            null,
            null,
            null,
            null,
            "01/05/2019",
            null,
            null
        ],
        [
            "XYZ",
            "ADIE",
            null,
            null,
            "XYZ-001-25",
            25,
            null,
            null,
            null,
            null,
            "01/06/2019",
            null,
            null
        ],
        [
            "XYZ",
            "ADIE",
            1.0,
            26.0,
            "XYZ-001-26",
            26,
            null,
            null,
            null,
            null,
            "01/08/2019",
            null,
            null
        ],
        [
            "XYZ",
            "ADIE",
            1.0,
            27.0,
            "XYZ-001-27",
            27,
            null,
            null,
            null,
            null,
            "01/02/2019",
            null,
            null
        ],
        [
            "XYZ",
            "ADIE",
            1.0,
            28.0,
            "XYZ-001-28",
            28,
            null,
            null,
            null,
            null,
            "01/09/2019",
            null,
            null
        ],
        [
            "XYZ",
            "ADIE",
            1.0,
            29.0,
            "XYZ-001-29",
            29,
            null,
            null,
            null,
            null,
            "01/03/2019",
            null,
            null
        ],
        [
            "XYZ",
            "ADIE",
            null,
            null,
            "XYZ-001-30",
            30,
            null,
            null,
            null,
            null,
            "01/03/2019",
            null,
            null
        ],
        [
            "XYZ",
            "ADIE",
            1.0,
            31.0,
            "XYZ-001-31",
            31,
            null,
            null,
            null,
            null,
            "01/04/2019",
            null,
            null
        ],
        [
            "XYZ",
            "ADIE",
            1.0,
            32.0,
            "XYZ-001-32",
            32,
            null,
            null,
            null,
            null,
            "01/02/2019",
            null,
            null
        ],
        [
            "XYZ",
            "ADIE",
            null,
            null,
            "XYZ-001-33",
            33,
            null,
            null,
            null,
            null,
            "01/06/2019",
            null,
            null
        ],
        [
            "XYZ",
            "ADIE",
            1.0,
            34.0,
            "XYZ-001-34",
            34,
            null,
            null,
            null,
            null,
            "01/01/2019",
            null,
            null
        ],
        [
            "XYZ",
            "ADIE",
            1.0,
            35.0,
            "XYZ-001-35",
            35,
            null,
            null,
            null,
            null,
            "01/10/2019",
            null,
            null
        ],
        [
            "XYZ",
            "ADIE",
            null,
            null,
            "XYZ-001-36",
            36,
            null,
            null,
            null,
            null,
            "01/09/2019",
            null,
            null
        ],
        [
            "XYZ",
            "ADIE",
            null,
            null,
            "XYZ-001-37",
            37,
            null,
            null,
            null,
            null,
            "01/04/2019",
            null,
            null
        ],
        [
            "XYZ",
            "ADIE",
            1.0,
            38.0,
            "XYZ-001-38",
            38,
            null,
            null,
            null,
            null,
            "01/09/2019",
            null,
            null
        ],
        [
            "XYZ",
            "ADIE",
            1.0,
            39.0,
            "XYZ-001-39",
            39,
            null,
            null,
            null,
            null,
            "01/03/2019",
            null,
            null
        ],
        [
            "XYZ",
            "ADIE",
            null,
            null,
            "XYZ-001-40",
            40,
            null,
            null,
            null,
            null,
            "01/10/2019",
            null,
            null
        ]
    ]
}