{
    "datasetJSONCreationDateTime": "2025-01-17T10:22:31",
    "datasetJSONVersion": "1.1.0",
    "fileOID": "XYZ_SDTM_ADAPQS",
    "dbLastModifiedDateTime": "2025-01-17T10:22:31",
    "originator": "EDA Clinical",
    "sourceSystem": {
        "name": "Python",
        "version": "3.8.0"
    },
    "studyOID": "SilentNight",
    "metaDataVersionOID": "1.0",
    "metaDataRef": "define.xml",
    "itemGroupOID": "IG.ADAPQS",
    "records": 270,
    "name": "ADAPQS",
    "label": "Analysis Dataset of Associated Person of Questionnaires",
    "columns": [
        {
            "itemOID": "IT.ADAPQS.STUDYID",
            "name": "STUDYID",
            "label": "Study Identifier",
            "dataType": "string",
            "length": 3,
            "keySequence": 1
        },
        {
            "itemOID": "IT.ADAPQS.DOMAIN",
            "name": "DOMAIN",
            "label": "Domain",
            "dataType": "string",
            "length": 6,
            "keySequence": 2
        },
        {
            "itemOID": "IT.ADAPQS.APID",
            "name": "APID",
            "label": "Associated Persons Identifier",
            "dataType": "integer",
            "length": 2,
            "keySequence": 3
        },
        {
            "itemOID": "IT.ADAPQS.RSUBJID",
            "name": "RSUBJID",
            "label": "Unique Subject Identifier",
            "dataType": "integer",
            "length": 2,
            "keySequence": 4
        },
        {
            "itemOID": "IT.ADAPQS.QSSEQ",
            "name": "QSSEQ",
            "label": "Questionnaire ",
            "dataType": "integer",
            "length": 2,
            "keySequence": 5
        },
        {
            "itemOID": "IT.ADAPQS.PARAM",
            "name": "PARAM",
            "label": "Parameter",
            "dataType": "string",
            "length": 40,
            "keySequence": 6
        },
        {
            "itemOID": "IT.ADAPQS.PARAMCD",
            "name": "PARAMCD",
            "label": "Parameter Code",
            "dataType": "string",
            "length": 8,
            "keySequence": 7
        },
        {
            "itemOID": "IT.ADAPQS.PARCAT1",
            "name": "PARCAT1",
            "label": "Parameter Category 1",
            "dataType": "string",
            "length": 36,
            "keySequence": 8
        },
        {
            "itemOID": "IT.ADAPQS.AVAL",
            "name": "AVAL",
            "label": "Analysis Value",
            "dataType": "string",
            "length": 7,
            "keySequence": 9
        },
        {
            "itemOID": "IT.ADAPQS.AVALC",
            "name": "AVALC",
            "label": "Analysis Value Character",
            "dataType": "string",
            "length": 7,
            "keySequence": 10
        },
        {
            "itemOID": "IT.ADAPQS.DTYPE",
            "name": "DTYPE",
            "label": "Derivation Type",
            "dataType": "string",
            "length": 4,
            "keySequence": 11
        },
        {
            "itemOID": "IT.ADAPQS.QSDT",
            "name": "QSDT",
            "label": "Date of collection of questionnaire",
            "dataType": "string",
            "length": 10,
            "keySequence": 12
        },
        {
            "itemOID": "IT.ADAPQS.ADT",
            "name": "ADT",
            "label": "Analysis Date",
            "dataType": "string",
            "length": 10,
            "keySequence": 13
        },
        {
            "itemOID": "IT.ADAPQS.VISIT",
            "name": "VISIT",
            "label": "Visit",
            "dataType": "string",
            "length": 4,
            "keySequence": 14
        },
        {
            "itemOID": "IT.ADAPQS.VISITNUM  ",
            "name": "VISITNUM  ",
            "label": "Visit Number",
            "dataType": "string",
            "length": 4,
            "keySequence": 15
        },
        {
            "itemOID": "IT.ADAPQS.AVISIT",
            "name": "AVISIT",
            "label": "Actual Visit",
            "dataType": "string",
            "length": 4,
            "keySequence": 16
        },
        {
            "itemOID": "IT.ADAPQS.AVISITN",
            "name": "AVISITN",
            "label": "Actual Visit Number",
            "dataType": "string",
            "length": 4,
            "keySequence": 17
        },
        {
            "itemOID": "IT.ADAPQS.TRTC",
            "name": "TRTC",
            "label": "Current Treatment",
            "dataType": "string",
            "length": 4,
            "keySequence": 18
        },
        {
            "itemOID": "IT.ADAPQS.ANL01FL",
            "name": "ANL01FL",
            "label": "Analysis Flag 1",
            "dataType": "string",
            "length": 4,
            "keySequence": 19
        },
        {
            "itemOID": "IT.ADAPQS.FASFL",
            "name": "FASFL",
            "label": "Full Analysis Set",
            "dataType": "string",
            "length": 1,
            "keySequence": 20
        },
        {
            "itemOID": "IT.ADAPQS.SAFFL",
            "name": "SAFFL",
            "label": "Safety",
            "dataType": "string",
            "length": 1,
            "keySequence": 21
        },
        {
            "itemOID": "IT.ADAPQS.ITTFL",
            "name": "ITTFL",
            "label": "Intent-to-Treat",
            "dataType": "string",
            "length": 1,
            "keySequence": 22
        },
        {
            "itemOID": "IT.ADAPQS.COMPLFL",
            "name": "COMPLFL",
            "label": "Completed the Study",
            "dataType": "string",
            "length": 1,
            "keySequence": 23
        },
        {
            "itemOID": "IT.ADAPQS.ENRLFL",
            "name": "ENRLFL",
            "label": "Enrolled in the Study",
            "dataType": "string",
            "length": 1,
            "keySequence": 24
        }
    ],
    "rows": [
        [
            "XYZ",
            "ADAPQS",
            41,
            1,
            1,
            "Rate Last Night's Sleep Quality 1 to 10",
            "RATEQSLP",
            "DAILY QUESTIONNAIRE FOR BED PARTNER",
            7,
            "7",
            null,
            "01/05/2019",
            "01/05/2019",
            null,
            null,
            null,
            null,
            null,
            null,
            "Y",
            "Y",
            "Y",
            "Y",
            "Y"
        ],
        [
            "XYZ",
            "ADAPQS",
            41,
            1,
            1,
            "Partner Use Medical Device Last Night",
            "PDEVUSE",
            "DAILY QUESTIONNAIRE FOR BED PARTNER",
            null,
            null,
            null,
            "01/05/2019",
            "01/05/2019",
            null,
            null,
            null,
            null,
            null,
            null,
            "Y",
            "Y",
            "Y",
            "Y",
            "Y"
        ],
        [
            "XYZ",
            "ADAPQS",
            41,
            1,
            1,
            "Snoring Improved By Medical Device",
            "DEVSNORE",
            "DAILY QUESTIONNAIRE FOR BED PARTNER",
            null,
            null,
            null,
            "01/05/2019",
            "01/05/2019",
            null,
            null,
            null,
            null,
            null,
            null,
            "Y",
            "Y",
            "Y",
            "Y",
            "Y"
        ],
        [
            "XYZ",
            "ADAPQS",
            41,
            1,
            1,
            "Rate Snoring Volume Last Night 1 to 10",
            "RATESNVL",
            "DAILY QUESTIONNAIRE FOR BED PARTNER",
            null,
            null,
            null,
            "01/05/2019",
            "01/05/2019",
            null,
            null,
            null,
            null,
            null,
            null,
            "Y",
            "Y",
            "Y",
            "Y",
            "Y"
        ],
        [
            "XYZ",
            "ADAPQS",
            41,
            1,
            1,
            "Sleep Disrupted By Partner Snoring",
            "SNORWAKE",
            "DAILY QUESTIONNAIRE FOR BED PARTNER",
            null,
            null,
            null,
            "01/05/2019",
            "01/05/2019",
            null,
            null,
            null,
            null,
            null,
            null,
            "Y",
            "Y",
            "Y",
            "Y",
            "Y"
        ],
        [
            "XYZ",
            "ADAPQS",
            41,
            1,
            1,
            "Had Difficulty Falling Or Staying Asleep",
            "DFSTSLP",
            "DAILY QUESTIONNAIRE FOR BED PARTNER",
            null,
            null,
            null,
            "01/05/2019",
            "01/05/2019",
            null,
            null,
            null,
            null,
            null,
            null,
            "Y",
            "Y",
            "Y",
            "Y",
            "Y"
        ],
        [
            "XYZ",
            "ADAPQS",
            41,
            1,
            1,
            "Which Product Rated",
            "PRODUCT",
            "IMPRESSION INTERVIEW FOR BED PARTNER",
            "Mute",
            "Mute",
            null,
            "01/15/2019",
            "01/15/2019",
            null,
            null,
            null,
            null,
            null,
            null,
            "Y",
            "Y",
            "Y",
            "Y",
            "Y"
        ],
        [
            "XYZ",
            "ADAPQS",
            41,
            1,
            1,
            "Rate Partner Device Satisfaction 1 to 10",
            "PRTNRSTF",
            "IMPRESSION INTERVIEW FOR BED PARTNER",
            1,
            "1",
            null,
            "01/15/2019",
            "01/15/2019",
            null,
            null,
            null,
            null,
            null,
            null,
            "Y",
            "Y",
            "Y",
            "Y",
            "Y"
        ],
        [
            "XYZ",
            "ADAPQS",
            41,
            1,
            1,
            "Rate Probability To Buy Device 1 to 10",
            "PROBBUY",
            "IMPRESSION INTERVIEW FOR BED PARTNER",
            10,
            "10",
            null,
            "01/15/2019",
            "01/15/2019",
            null,
            null,
            null,
            null,
            null,
            null,
            "Y",
            "Y",
            "Y",
            "Y",
            "Y"
        ],
        [
            "XYZ",
            "ADAPQS",
            41,
            1,
            1,
            "Rate Probability To Recommend 1 to 10",
            "RECOMMND",
            "IMPRESSION INTERVIEW FOR BED PARTNER",
            6,
            "6",
            null,
            "01/15/2019",
            "01/15/2019",
            null,
            null,
            null,
            null,
            null,
            null,
            "Y",
            "Y",
            "Y",
            "Y",
            "Y"
        ],
        [
            "XYZ",
            "ADAPQS",
            41,
            1,
            2,
            "Rate Last Night's Sleep Quality 1 to 10",
            "RATEQSLP",
            "DAILY QUESTIONNAIRE FOR BED PARTNER",
            10,
            "10",
            null,
            "01/06/2019",
            "01/06/2019",
            null,
            null,
            null,
            null,
            null,
            null,
            "Y",
            "Y",
            "Y",
            "Y",
            "Y"
        ],
        [
            "XYZ",
            "ADAPQS",
            41,
            1,
            2,
            "Partner Use Medical Device Last Night",
            "PDEVUSE",
            "DAILY QUESTIONNAIRE FOR BED PARTNER",
            null,
            null,
            null,
            "01/06/2019",
            "01/06/2019",
            null,
            null,
            null,
            null,
            null,
            null,
            "Y",
            "Y",
            "Y",
            "Y",
            "Y"
        ],
        [
            "XYZ",
            "ADAPQS",
            41,
            1,
            2,
            "Snoring Improved By Medical Device",
            "DEVSNORE",
            "DAILY QUESTIONNAIRE FOR BED PARTNER",
            null,
            null,
            null,
            "01/06/2019",
            "01/06/2019",
            null,
            null,
            null,
            null,
            null,
            null,
            "Y",
            "Y",
            "Y",
            "Y",
            "Y"
        ],
        [
            "XYZ",
            "ADAPQS",
            41,
            1,
            2,
            "Rate Snoring Volume Last Night 1 to 10",
            "RATESNVL",
            "DAILY QUESTIONNAIRE FOR BED PARTNER",
            null,
            null,
            null,
            "01/06/2019",
            "01/06/2019",
            null,
            null,
            null,
            null,
            null,
            null,
            "Y",
            "Y",
            "Y",
            "Y",
            "Y"
        ],
        [
            "XYZ",
            "ADAPQS",
            41,
            1,
            2,
            "Sleep Disrupted By Partner Snoring",
            "SNORWAKE",
            "DAILY QUESTIONNAIRE FOR BED PARTNER",
            null,
            null,
            null,
            "01/06/2019",
            "01/06/2019",
            null,
            null,
            null,
            null,
            null,
            null,
            "Y",
            "Y",
            "Y",
            "Y",
            "Y"
        ],
        [
            "XYZ",
            "ADAPQS",
            41,
            1,
            2,
            "Had Difficulty Falling Or Staying Asleep",
            "DFSTSLP",
            "DAILY QUESTIONNAIRE FOR BED PARTNER",
            null,
            null,
            null,
            "01/06/2019",
            "01/06/2019",
            null,
            null,
            null,
            null,
            null,
            null,
            "Y",
            "Y",
            "Y",
            "Y",
            "Y"
        ],
        [
            "XYZ",
            "ADAPQS",
            41,
            1,
            2,
            "Which Product Rated",
            "PRODUCT",
            "IMPRESSION INTERVIEW FOR BED PARTNER",
            "MyTAP V",
            "MyTAP V",
            null,
            "01/29/2019",
            "01/29/2019",
            null,
            null,
            null,
            null,
            null,
            null,
            "Y",
            "Y",
            "Y",
            "Y",
            "Y"
        ],
        [
            "XYZ",
            "ADAPQS",
            41,
            1,
            2,
            "Rate Partner Device Satisfaction 1 to 10",
            "PRTNRSTF",
            "IMPRESSION INTERVIEW FOR BED PARTNER",
            8,
            "8",
            null,
            "01/29/2019",
            "01/29/2019",
            null,
            null,
            null,
            null,
            null,
            null,
            "Y",
            "Y",
            "Y",
            "Y",
            "Y"
        ],
        [
            "XYZ",
            "ADAPQS",
            41,
            1,
            2,
            "Rate Probability To Buy Device 1 to 10",
            "PROBBUY",
            "IMPRESSION INTERVIEW FOR BED PARTNER",
            1,
            "1",
            null,
            "01/29/2019",
            "01/29/2019",
            null,
            null,
            null,
            null,
            null,
            null,
            "Y",
            "Y",
            "Y",
            "Y",
            "Y"
        ],
        [
            "XYZ",
            "ADAPQS",
            41,
            1,
            2,
            "Rate Probability To Recommend 1 to 10",
            "RECOMMND",
            "IMPRESSION INTERVIEW FOR BED PARTNER",
            2,
            "2",
            null,
            "01/29/2019",
            "01/29/2019",
            null,
            null,
            null,
            null,
            null,
            null,
            "Y",
            "Y",
            "Y",
            "Y",
            "Y"
        ],
        [
            "XYZ",
            "ADAPQS",
            41,
            1,
            3,
            "Rate Last Night's Sleep Quality 1 to 10",
            "RATEQSLP",
            "DAILY QUESTIONNAIRE FOR BED PARTNER",
            5,
            "5",
            null,
            "01/07/2019",
            "01/07/2019",
            null,
            null,
            null,
            null,
            null,
            null,
            "Y",
            "Y",
            "Y",
            "Y",
            "Y"
        ],
        [
            "XYZ",
            "ADAPQS",
            41,
            1,
            3,
            "Partner Use Medical Device Last Night",
            "PDEVUSE",
            "DAILY QUESTIONNAIRE FOR BED PARTNER",
            null,
            null,
            null,
            "01/07/2019",
            "01/07/2019",
            null,
            null,
            null,
            null,
            null,
            null,
            "Y",
            "Y",
            "Y",
            "Y",
            "Y"
        ],
        [
            "XYZ",
            "ADAPQS",
            41,
            1,
            3,
            "Snoring Improved By Medical Device",
            "DEVSNORE",
            "DAILY QUESTIONNAIRE FOR BED PARTNER",
            null,
            null,
            null,
            "01/07/2019",
            "01/07/2019",
            null,
            null,
            null,
            null,
            null,
            null,
            "Y",
            "Y",
            "Y",
            "Y",
            "Y"
        ],
        [
            "XYZ",
            "ADAPQS",
            41,
            1,
            3,
            "Rate Snoring Volume Last Night 1 to 10",
            "RATESNVL",
            "DAILY QUESTIONNAIRE FOR BED PARTNER",
            null,
            null,
            null,
            "01/07/2019",
            "01/07/2019",
            null,
            null,
            null,
            null,
            null,
            null,
            "Y",
            "Y",
            "Y",
            "Y",
            "Y"
        ],
        [
            "XYZ",
            "ADAPQS",
            41,
            1,
            3,
            "Sleep Disrupted By Partner Snoring",
            "SNORWAKE",
            "DAILY QUESTIONNAIRE FOR BED PARTNER",
            null,
            null,
            null,
            "01/07/2019",
            "01/07/2019",
            null,
            null,
            null,
            null,
            null,
            null,
            "Y",
            "Y",
            "Y",
            "Y",
            "Y"
        ],
        [
            "XYZ",
            "ADAPQS",
            41,
            1,
            3,
            "Had Difficulty Falling Or Staying Asleep",
            "DFSTSLP",
            "DAILY QUESTIONNAIRE FOR BED PARTNER",
            null,
            null,
            null,
            "01/07/2019",
            "01/07/2019",
            null,
            null,
            null,
            null,
            null,
            null,
            "Y",
            "Y",
            "Y",
            "Y",
            "Y"
        ],
        [
            "XYZ",
            "ADAPQS",
            41,
            1,
            3,
            "Which Product Rated",
            "PRODUCT",
            "IMPRESSION INTERVIEW FOR BED PARTNER",
            "SPT",
            "SPT",
            null,
            "02/12/2019",
            "02/12/2019",
            null,
            null,
            null,
            null,
            null,
            null,
            "Y",
            "Y",
            "Y",
            "Y",
            "Y"
        ],
        [
            "XYZ",
            "ADAPQS",
            41,
            1,
            3,
            "Rate Partner Device Satisfaction 1 to 10",
            "PRTNRSTF",
            "IMPRESSION INTERVIEW FOR BED PARTNER",
            6,
            "6",
            null,
            "02/12/2019",
            "02/12/2019",
            null,
            null,
            null,
            null,
            null,
            null,
            "Y",
            "Y",
            "Y",
            "Y",
            "Y"
        ],
        [
            "XYZ",
            "ADAPQS",
            41,
            1,
            3,
            "Rate Probability To Buy Device 1 to 10",
            "PROBBUY",
            "IMPRESSION INTERVIEW FOR BED PARTNER",
            5,
            "5",
            null,
            "02/12/2019",
            "02/12/2019",
            null,
            null,
            null,
            null,
            null,
            null,
            "Y",
            "Y",
            "Y",
            "Y",
            "Y"
        ],
        [
            "XYZ",
            "ADAPQS",
            41,
            1,
            3,
            "Rate Probability To Recommend 1 to 10",
            "RECOMMND",
            "IMPRESSION INTERVIEW FOR BED PARTNER",
            4,
            "4",
            null,
            "02/12/2019",
            "02/12/2019",
            null,
            null,
            null,
            null,
            null,
            null,
            "Y",
            "Y",
            "Y",
            "Y",
            "Y"
        ],
        [
            "XYZ",
            "ADAPQS",
            41,
            1,
            4,
            "Rate Last Night's Sleep Quality 1 to 10",
            "RATEQSLP",
            "DAILY QUESTIONNAIRE FOR BED PARTNER",
            3,
            "3",
            null,
            "01/08/2019",
            "01/08/2019",
            null,
            null,
            null,
            null,
            null,
            null,
            "Y",
            "Y",
            "Y",
            "Y",
            "Y"
        ],
        [
            "XYZ",
            "ADAPQS",
            41,
            1,
            4,
            "Partner Use Medical Device Last Night",
            "PDEVUSE",
            "DAILY QUESTIONNAIRE FOR BED PARTNER",
            null,
            null,
            null,
            "01/08/2019",
            "01/08/2019",
            null,
            null,
            null,
            null,
            null,
            null,
            "Y",
            "Y",
            "Y",
            "Y",
            "Y"
        ],
        [
            "XYZ",
            "ADAPQS",
            41,
            1,
            4,
            "Snoring Improved By Medical Device",
            "DEVSNORE",
            "DAILY QUESTIONNAIRE FOR BED PARTNER",
            null,
            null,
            null,
            "01/08/2019",
            "01/08/2019",
            null,
            null,
            null,
            null,
            null,
            null,
            "Y",
            "Y",
            "Y",
            "Y",
            "Y"
        ],
        [
            "XYZ",
            "ADAPQS",
            41,
            1,
            4,
            "Rate Snoring Volume Last Night 1 to 10",
            "RATESNVL",
            "DAILY QUESTIONNAIRE FOR BED PARTNER",
            null,
            null,
            null,
            "01/08/2019",
            "01/08/2019",
            null,
            null,
            null,
            null,
            null,
            null,
            "Y",
            "Y",
            "Y",
            "Y",
            "Y"
        ],
        [
            "XYZ",
            "ADAPQS",
            41,
            1,
            4,
            "Sleep Disrupted By Partner Snoring",
            "SNORWAKE",
            "DAILY QUESTIONNAIRE FOR BED PARTNER",
            null,
            null,
            null,
            "01/08/2019",
            "01/08/2019",
            null,
            null,
            null,
            null,
            null,
            null,
            "Y",
            "Y",
            "Y",
            "Y",
            "Y"
        ],
        [
            "XYZ",
            "ADAPQS",
            41,
            1,
            4,
            "Had Difficulty Falling Or Staying Asleep",
            "DFSTSLP",
            "DAILY QUESTIONNAIRE FOR BED PARTNER",
            null,
            null,
            null,
            "01/08/2019",
            "01/08/2019",
            null,
            null,
            null,
            null,
            null,
            null,
            "Y",
            "Y",
            "Y",
            "Y",
            "Y"
        ],
        [
            "XYZ",
            "ADAPQS",
            42,
            2,
            4,
            "Which Product Rated",
            "PRODUCT",
            "IMPRESSION INTERVIEW FOR BED PARTNER",
            "Mute",
            "Mute",
            null,
            "01/13/2019",
            "01/13/2019",
            null,
            null,
            null,
            null,
            null,
            null,
            "Y",
            "Y",
            "Y",
            "Y",
            "Y"
        ],
        [
            "XYZ",
            "ADAPQS",
            42,
            2,
            4,
            "Rate Partner Device Satisfaction 1 to 10",
            "PRTNRSTF",
            "IMPRESSION INTERVIEW FOR BED PARTNER",
            7,
            "7",
            null,
            "01/13/2019",
            "01/13/2019",
            null,
            null,
            null,
            null,
            null,
            null,
            "Y",
            "Y",
            "Y",
            "Y",
            "Y"
        ],
        [
            "XYZ",
            "ADAPQS",
            42,
            2,
            4,
            "Rate Probability To Buy Device 1 to 10",
            "PROBBUY",
            "IMPRESSION INTERVIEW FOR BED PARTNER",
            7,
            "7",
            null,
            "01/13/2019",
            "01/13/2019",
            null,
            null,
            null,
            null,
            null,
            null,
            "Y",
            "Y",
            "Y",
            "Y",
            "Y"
        ],
        [
            "XYZ",
            "ADAPQS",
            42,
            2,
            4,
            "Rate Probability To Recommend 1 to 10",
            "RECOMMND",
            "IMPRESSION INTERVIEW FOR BED PARTNER",
            8,
            "8",
            null,
            "01/13/2019",
            "01/13/2019",
            null,
            null,
            null,
            null,
            null,
            null,
            "Y",
            "Y",
            "Y",
            "Y",
            "Y"
        ],
        [
            "XYZ",
            "ADAPQS",
            41,
            1,
            5,
            "Rate Last Night's Sleep Quality 1 to 10",
            "RATEQSLP",
            "DAILY QUESTIONNAIRE FOR BED PARTNER",
            1,
            "1",
            null,
            "01/09/2019",
            "01/09/2019",
            null,
            null,
            null,
            null,
            null,
            null,
            "Y",
            "Y",
            "Y",
            "Y",
            "Y"
        ],
        [
            "XYZ",
            "ADAPQS",
            41,
            1,
            5,
            "Partner Use Medical Device Last Night",
            "PDEVUSE",
            "DAILY QUESTIONNAIRE FOR BED PARTNER",
            null,
            null,
            null,
            "01/09/2019",
            "01/09/2019",
            null,
            null,
            null,
            null,
            null,
            null,
            "Y",
            "Y",
            "Y",
            "Y",
            "Y"
        ],
        [
            "XYZ",
            "ADAPQS",
            41,
            1,
            5,
            "Snoring Improved By Medical Device",
            "DEVSNORE",
            "DAILY QUESTIONNAIRE FOR BED PARTNER",
            null,
            null,
            null,
            "01/09/2019",
            "01/09/2019",
            null,
            null,
            null,
            null,
            null,
            null,
            "Y",
            "Y",
            "Y",
            "Y",
            "Y"
        ],
        [
            "XYZ",
            "ADAPQS",
            41,
            1,
            5,
            "Rate Snoring Volume Last Night 1 to 10",
            "RATESNVL",
            "DAILY QUESTIONNAIRE FOR BED PARTNER",
            null,
            null,
            null,
            "01/09/2019",
            "01/09/2019",
            null,
            null,
            null,
            null,
            null,
            null,
            "Y",
            "Y",
            "Y",
            "Y",
            "Y"
        ],
        [
            "XYZ",
            "ADAPQS",
            41,
            1,
            5,
            "Sleep Disrupted By Partner Snoring",
            "SNORWAKE",
            "DAILY QUESTIONNAIRE FOR BED PARTNER",
            null,
            null,
            null,
            "01/09/2019",
            "01/09/2019",
            null,
            null,
            null,
            null,
            null,
            null,
            "Y",
            "Y",
            "Y",
            "Y",
            "Y"
        ],
        [
            "XYZ",
            "ADAPQS",
            41,
            1,
            5,
            "Had Difficulty Falling Or Staying Asleep",
            "DFSTSLP",
            "DAILY QUESTIONNAIRE FOR BED PARTNER",
            null,
            null,
            null,
            "01/09/2019",
            "01/09/2019",
            null,
            null,
            null,
            null,
            null,
            null,
            "Y",
            "Y",
            "Y",
            "Y",
            "Y"
        ],
        [
            "XYZ",
            "ADAPQS",
            42,
            2,
            5,
            "Which Product Rated",
            "PRODUCT",
            "IMPRESSION INTERVIEW FOR BED PARTNER",
            "MyTAP V",
            "MyTAP V",
            null,
            "01/27/2019",
            "01/27/2019",
            null,
            null,
            null,
            null,
            null,
            null,
            "Y",
            "Y",
            "Y",
            "Y",
            "Y"
        ],
        [
            "XYZ",
            "ADAPQS",
            42,
            2,
            5,
            "Rate Partner Device Satisfaction 1 to 10",
            "PRTNRSTF",
            "IMPRESSION INTERVIEW FOR BED PARTNER",
            1,
            "1",
            null,
            "01/27/2019",
            "01/27/2019",
            null,
            null,
            null,
            null,
            null,
            null,
            "Y",
            "Y",
            "Y",
            "Y",
            "Y"
        ],
        [
            "XYZ",
            "ADAPQS",
            42,
            2,
            5,
            "Rate Probability To Buy Device 1 to 10",
            "PROBBUY",
            "IMPRESSION INTERVIEW FOR BED PARTNER",
            2,
            "2",
            null,
            "01/27/2019",
            "01/27/2019",
            null,
            null,
            null,
            null,
            null,
            null,
            "Y",
            "Y",
            "Y",
            "Y",
            "Y"
        ],
        [
            "XYZ",
            "ADAPQS",
            42,
            2,
            5,
            "Rate Probability To Recommend 1 to 10",
            "RECOMMND",
            "IMPRESSION INTERVIEW FOR BED PARTNER",
            1,
            "1",
            null,
            "01/27/2019",
            "01/27/2019",
            null,
            null,
            null,
            null,
            null,
            null,
            "Y",
            "Y",
            "Y",
            "Y",
            "Y"
        ],
        [
            "XYZ",
            "ADAPQS",
            41,
            1,
            6,
            "Rate Last Night's Sleep Quality 1 to 10",
            "RATEQSLP",
            "DAILY QUESTIONNAIRE FOR BED PARTNER",
            8,
            "8",
            null,
            "01/10/2019",
            "01/10/2019",
            null,
            null,
            null,
            null,
            null,
            null,
            "Y",
            "Y",
            "Y",
            "Y",
            "Y"
        ],
        [
            "XYZ",
            "ADAPQS",
            41,
            1,
            6,
            "Partner Use Medical Device Last Night",
            "PDEVUSE",
            "DAILY QUESTIONNAIRE FOR BED PARTNER",
            null,
            null,
            null,
            "01/10/2019",
            "01/10/2019",
            null,
            null,
            null,
            null,
            null,
            null,
            "Y",
            "Y",
            "Y",
            "Y",
            "Y"
        ],
        [
            "XYZ",
            "ADAPQS",
            41,
            1,
            6,
            "Snoring Improved By Medical Device",
            "DEVSNORE",
            "DAILY QUESTIONNAIRE FOR BED PARTNER",
            null,
            null,
            null,
            "01/10/2019",
            "01/10/2019",
            null,
            null,
            null,
            null,
            null,
            null,
            "Y",
            "Y",
            "Y",
            "Y",
            "Y"
        ],
        [
            "XYZ",
            "ADAPQS",
            41,
            1,
            6,
            "Rate Snoring Volume Last Night 1 to 10",
            "RATESNVL",
            "DAILY QUESTIONNAIRE FOR BED PARTNER",
            null,
            null,
            null,
            "01/10/2019",
            "01/10/2019",
            null,
            null,
            null,
            null,
            null,
            null,
            "Y",
            "Y",
            "Y",
            "Y",
            "Y"
        ],
        [
            "XYZ",
            "ADAPQS",
            41,
            1,
            6,
            "Sleep Disrupted By Partner Snoring",
            "SNORWAKE",
            "DAILY QUESTIONNAIRE FOR BED PARTNER",
            null,
            null,
            null,
            "01/10/2019",
            "01/10/2019",
            null,
            null,
            null,
            null,
            null,
            null,
            "Y",
            "Y",
            "Y",
            "Y",
            "Y"
        ],
        [
            "XYZ",
            "ADAPQS",
            41,
            1,
            6,
            "Had Difficulty Falling Or Staying Asleep",
            "DFSTSLP",
            "DAILY QUESTIONNAIRE FOR BED PARTNER",
            null,
            null,
            null,
            "01/10/2019",
            "01/10/2019",
            null,
            null,
            null,
            null,
            null,
            null,
            "Y",
            "Y",
            "Y",
            "Y",
            "Y"
        ],
        [
            "XYZ",
            "ADAPQS",
            42,
            2,
            6,
            "Which Product Rated",
            "PRODUCT",
            "IMPRESSION INTERVIEW FOR BED PARTNER",
            "SPT",
            "SPT",
            null,
            "02/10/2019",
            "02/10/2019",
            null,
            null,
            null,
            null,
            null,
            null,
            "Y",
            "Y",
            "Y",
            "Y",
            "Y"
        ],
        [
            "XYZ",
            "ADAPQS",
            42,
            2,
            6,
            "Rate Partner Device Satisfaction 1 to 10",
            "PRTNRSTF",
            "IMPRESSION INTERVIEW FOR BED PARTNER",
            7,
            "7",
            null,
            "02/10/2019",
            "02/10/2019",
            null,
            null,
            null,
            null,
            null,
            null,
            "Y",
            "Y",
            "Y",
            "Y",
            "Y"
        ],
        [
            "XYZ",
            "ADAPQS",
            42,
            2,
            6,
            "Rate Probability To Buy Device 1 to 10",
            "PROBBUY",
            "IMPRESSION INTERVIEW FOR BED PARTNER",
            6,
            "6",
            null,
            "02/10/2019",
            "02/10/2019",
            null,
            null,
            null,
            null,
            null,
            null,
            "Y",
            "Y",
            "Y",
            "Y",
            "Y"
        ],
        [
            "XYZ",
            "ADAPQS",
            42,
            2,
            6,
            "Rate Probability To Recommend 1 to 10",
            "RECOMMND",
            "IMPRESSION INTERVIEW FOR BED PARTNER",
            2,
            "2",
            null,
            "02/10/2019",
            "02/10/2019",
            null,
            null,
            null,
            null,
            null,
            null,
            "Y",
            "Y",
            "Y",
            "Y",
            "Y"
        ],
        [
            "XYZ",
            "ADAPQS",
            41,
            1,
            7,
            "Rate Last Night's Sleep Quality 1 to 10",
            "RATEQSLP",
            "DAILY QUESTIONNAIRE FOR BED PARTNER",
            5,
            "5",
            null,
            "01/11/2019",
            "01/11/2019",
            null,
            null,
            null,
            null,
            null,
            null,
            "Y",
            "Y",
            "Y",
            "Y",
            "Y"
        ],
        [
            "XYZ",
            "ADAPQS",
            41,
            1,
            7,
            "Partner Use Medical Device Last Night",
            "PDEVUSE",
            "DAILY QUESTIONNAIRE FOR BED PARTNER",
            null,
            null,
            null,
            "01/11/2019",
            "01/11/2019",
            null,
            null,
            null,
            null,
            null,
            null,
            "Y",
            "Y",
            "Y",
            "Y",
            "Y"
        ],
        [
            "XYZ",
            "ADAPQS",
            41,
            1,
            7,
            "Snoring Improved By Medical Device",
            "DEVSNORE",
            "DAILY QUESTIONNAIRE FOR BED PARTNER",
            null,
            null,
            null,
            "01/11/2019",
            "01/11/2019",
            null,
            null,
            null,
            null,
            null,
            null,
            "Y",
            "Y",
            "Y",
            "Y",
            "Y"
        ],
        [
            "XYZ",
            "ADAPQS",
            41,
            1,
            7,
            "Rate Snoring Volume Last Night 1 to 10",
            "RATESNVL",
            "DAILY QUESTIONNAIRE FOR BED PARTNER",
            null,
            null,
            null,
            "01/11/2019",
            "01/11/2019",
            null,
            null,
            null,
            null,
            null,
            null,
            "Y",
            "Y",
            "Y",
            "Y",
            "Y"
        ],
        [
            "XYZ",
            "ADAPQS",
            41,
            1,
            7,
            "Sleep Disrupted By Partner Snoring",
            "SNORWAKE",
            "DAILY QUESTIONNAIRE FOR BED PARTNER",
            null,
            null,
            null,
            "01/11/2019",
            "01/11/2019",
            null,
            null,
            null,
            null,
            null,
            null,
            "Y",
            "Y",
            "Y",
            "Y",
            "Y"
        ],
        [
            "XYZ",
            "ADAPQS",
            41,
            1,
            7,
            "Had Difficulty Falling Or Staying Asleep",
            "DFSTSLP",
            "DAILY QUESTIONNAIRE FOR BED PARTNER",
            null,
            null,
            null,
            "01/11/2019",
            "01/11/2019",
            null,
            null,
            null,
            null,
            null,
            null,
            "Y",
            "Y",
            "Y",
            "Y",
            "Y"
        ],
        [
            "XYZ",
            "ADAPQS",
            45,
            5,
            7,
            "Which Product Rated",
            "PRODUCT",
            "IMPRESSION INTERVIEW FOR BED PARTNER",
            "Mute",
            "Mute",
            null,
            "01/16/2019",
            "01/16/2019",
            null,
            null,
            null,
            null,
            null,
            null,
            "Y",
            "Y",
            "Y",
            "Y",
            "Y"
        ],
        [
            "XYZ",
            "ADAPQS",
            45,
            5,
            7,
            "Rate Partner Device Satisfaction 1 to 10",
            "PRTNRSTF",
            "IMPRESSION INTERVIEW FOR BED PARTNER",
            9,
            "9",
            null,
            "01/16/2019",
            "01/16/2019",
            null,
            null,
            null,
            null,
            null,
            null,
            "Y",
            "Y",
            "Y",
            "Y",
            "Y"
        ],
        [
            "XYZ",
            "ADAPQS",
            45,
            5,
            7,
            "Rate Probability To Buy Device 1 to 10",
            "PROBBUY",
            "IMPRESSION INTERVIEW FOR BED PARTNER",
            4,
            "4",
            null,
            "01/16/2019",
            "01/16/2019",
            null,
            null,
            null,
            null,
            null,
            null,
            "Y",
            "Y",
            "Y",
            "Y",
            "Y"
        ],
        [
            "XYZ",
            "ADAPQS",
            45,
            5,
            7,
            "Rate Probability To Recommend 1 to 10",
            "RECOMMND",
            "IMPRESSION INTERVIEW FOR BED PARTNER",
            5,
            "5",
            null,
            "01/16/2019",
            "01/16/2019",
            null,
            null,
            null,
            null,
            null,
            null,
            "Y",
            "Y",
            "Y",
            "Y",
            "Y"
        ],
        [
            "XYZ",
            "ADAPQS",
            41,
            1,
            8,
            "Rate Last Night's Sleep Quality 1 to 10",
            "RATEQSLP",
            "DAILY QUESTIONNAIRE FOR BED PARTNER",
            4,
            "4",
            null,
            "01/12/2019",
            "01/12/2019",
            null,
            null,
            null,
            null,
            null,
            null,
            "Y",
            "Y",
            "Y",
            "Y",
            "Y"
        ],
        [
            "XYZ",
            "ADAPQS",
            41,
            1,
            8,
            "Partner Use Medical Device Last Night",
            "PDEVUSE",
            "DAILY QUESTIONNAIRE FOR BED PARTNER",
            null,
            null,
            null,
            "01/12/2019",
            "01/12/2019",
            null,
            null,
            null,
            null,
            null,
            null,
            "Y",
            "Y",
            "Y",
            "Y",
            "Y"
        ],
        [
            "XYZ",
            "ADAPQS",
            41,
            1,
            8,
            "Snoring Improved By Medical Device",
            "DEVSNORE",
            "DAILY QUESTIONNAIRE FOR BED PARTNER",
            null,
            null,
            null,
            "01/12/2019",
            "01/12/2019",
            null,
            null,
            null,
            null,
            null,
            null,
            "Y",
            "Y",
            "Y",
            "Y",
            "Y"
        ],
        [
            "XYZ",
            "ADAPQS",
            41,
            1,
            8,
            "Rate Snoring Volume Last Night 1 to 10",
            "RATESNVL",
            "DAILY QUESTIONNAIRE FOR BED PARTNER",
            null,
            null,
            null,
            "01/12/2019",
            "01/12/2019",
            null,
            null,
            null,
            null,
            null,
            null,
            "Y",
            "Y",
            "Y",
            "Y",
            "Y"
        ],
        [
            "XYZ",
            "ADAPQS",
            41,
            1,
            8,
            "Sleep Disrupted By Partner Snoring",
            "SNORWAKE",
            "DAILY QUESTIONNAIRE FOR BED PARTNER",
            null,
            null,
            null,
            "01/12/2019",
            "01/12/2019",
            null,
            null,
            null,
            null,
            null,
            null,
            "Y",
            "Y",
            "Y",
            "Y",
            "Y"
        ],
        [
            "XYZ",
            "ADAPQS",
            41,
            1,
            8,
            "Had Difficulty Falling Or Staying Asleep",
            "DFSTSLP",
            "DAILY QUESTIONNAIRE FOR BED PARTNER",
            null,
            null,
            null,
            "01/12/2019",
            "01/12/2019",
            null,
            null,
            null,
            null,
            null,
            null,
            "Y",
            "Y",
            "Y",
            "Y",
            "Y"
        ],
        [
            "XYZ",
            "ADAPQS",
            45,
            5,
            8,
            "Which Product Rated",
            "PRODUCT",
            "IMPRESSION INTERVIEW FOR BED PARTNER",
            "MyTAP V",
            "MyTAP V",
            null,
            "01/30/2019",
            "01/30/2019",
            null,
            null,
            null,
            null,
            null,
            null,
            "Y",
            "Y",
            "Y",
            "Y",
            "Y"
        ],
        [
            "XYZ",
            "ADAPQS",
            45,
            5,
            8,
            "Rate Partner Device Satisfaction 1 to 10",
            "PRTNRSTF",
            "IMPRESSION INTERVIEW FOR BED PARTNER",
            7,
            "7",
            null,
            "01/30/2019",
            "01/30/2019",
            null,
            null,
            null,
            null,
            null,
            null,
            "Y",
            "Y",
            "Y",
            "Y",
            "Y"
        ],
        [
            "XYZ",
            "ADAPQS",
            45,
            5,
            8,
            "Rate Probability To Buy Device 1 to 10",
            "PROBBUY",
            "IMPRESSION INTERVIEW FOR BED PARTNER",
            6,
            "6",
            null,
            "01/30/2019",
            "01/30/2019",
            null,
            null,
            null,
            null,
            null,
            null,
            "Y",
            "Y",
            "Y",
            "Y",
            "Y"
        ],
        [
            "XYZ",
            "ADAPQS",
            45,
            5,
            8,
            "Rate Probability To Recommend 1 to 10",
            "RECOMMND",
            "IMPRESSION INTERVIEW FOR BED PARTNER",
            8,
            "8",
            null,
            "01/30/2019",
            "01/30/2019",
            null,
            null,
            null,
            null,
            null,
            null,
            "Y",
            "Y",
            "Y",
            "Y",
            "Y"
        ],
        [
            "XYZ",
            "ADAPQS",
            41,
            1,
            9,
            "Rate Last Night's Sleep Quality 1 to 10",
            "RATEQSLP",
            "DAILY QUESTIONNAIRE FOR BED PARTNER",
            5,
            "5",
            null,
            "01/13/2019",
            "01/13/2019",
            null,
            null,
            null,
            null,
            null,
            null,
            "Y",
            "Y",
            "Y",
            "Y",
            "Y"
        ],
        [
            "XYZ",
            "ADAPQS",
            41,
            1,
            9,
            "Partner Use Medical Device Last Night",
            "PDEVUSE",
            "DAILY QUESTIONNAIRE FOR BED PARTNER",
            null,
            null,
            null,
            "01/13/2019",
            "01/13/2019",
            null,
            null,
            null,
            null,
            null,
            null,
            "Y",
            "Y",
            "Y",
            "Y",
            "Y"
        ],
        [
            "XYZ",
            "ADAPQS",
            41,
            1,
            9,
            "Snoring Improved By Medical Device",
            "DEVSNORE",
            "DAILY QUESTIONNAIRE FOR BED PARTNER",
            null,
            null,
            null,
            "01/13/2019",
            "01/13/2019",
            null,
            null,
            null,
            null,
            null,
            null,
            "Y",
            "Y",
            "Y",
            "Y",
            "Y"
        ],
        [
            "XYZ",
            "ADAPQS",
            41,
            1,
            9,
            "Rate Snoring Volume Last Night 1 to 10",
            "RATESNVL",
            "DAILY QUESTIONNAIRE FOR BED PARTNER",
            null,
            null,
            null,
            "01/13/2019",
            "01/13/2019",
            null,
            null,
            null,
            null,
            null,
            null,
            "Y",
            "Y",
            "Y",
            "Y",
            "Y"
        ],
        [
            "XYZ",
            "ADAPQS",
            41,
            1,
            9,
            "Sleep Disrupted By Partner Snoring",
            "SNORWAKE",
            "DAILY QUESTIONNAIRE FOR BED PARTNER",
            null,
            null,
            null,
            "01/13/2019",
            "01/13/2019",
            null,
            null,
            null,
            null,
            null,
            null,
            "Y",
            "Y",
            "Y",
            "Y",
            "Y"
        ],
        [
            "XYZ",
            "ADAPQS",
            41,
            1,
            9,
            "Had Difficulty Falling Or Staying Asleep",
            "DFSTSLP",
            "DAILY QUESTIONNAIRE FOR BED PARTNER",
            null,
            null,
            null,
            "01/13/2019",
            "01/13/2019",
            null,
            null,
            null,
            null,
            null,
            null,
            "Y",
            "Y",
            "Y",
            "Y",
            "Y"
        ],
        [
            "XYZ",
            "ADAPQS",
            45,
            5,
            9,
            "Which Product Rated",
            "PRODUCT",
            "IMPRESSION INTERVIEW FOR BED PARTNER",
            "SPT",
            "SPT",
            null,
            "02/13/2019",
            "02/13/2019",
            null,
            null,
            null,
            null,
            null,
            null,
            "Y",
            "Y",
            "Y",
            "Y",
            "Y"
        ],
        [
            "XYZ",
            "ADAPQS",
            45,
            5,
            9,
            "Rate Partner Device Satisfaction 1 to 10",
            "PRTNRSTF",
            "IMPRESSION INTERVIEW FOR BED PARTNER",
            9,
            "9",
            null,
            "02/13/2019",
            "02/13/2019",
            null,
            null,
            null,
            null,
            null,
            null,
            "Y",
            "Y",
            "Y",
            "Y",
            "Y"
        ],
        [
            "XYZ",
            "ADAPQS",
            45,
            5,
            9,
            "Rate Probability To Buy Device 1 to 10",
            "PROBBUY",
            "IMPRESSION INTERVIEW FOR BED PARTNER",
            8,
            "8",
            null,
            "02/13/2019",
            "02/13/2019",
            null,
            null,
            null,
            null,
            null,
            null,
            "Y",
            "Y",
            "Y",
            "Y",
            "Y"
        ],
        [
            "XYZ",
            "ADAPQS",
            45,
            5,
            9,
            "Rate Probability To Recommend 1 to 10",
            "RECOMMND",
            "IMPRESSION INTERVIEW FOR BED PARTNER",
            2,
            "2",
            null,
            "02/13/2019",
            "02/13/2019",
            null,
            null,
            null,
            null,
            null,
            null,
            "Y",
            "Y",
            "Y",
            "Y",
            "Y"
        ],
        [
            "XYZ",
            "ADAPQS",
            41,
            1,
            10,
            "Rate Last Night's Sleep Quality 1 to 10",
            "RATEQSLP",
            "DAILY QUESTIONNAIRE FOR BED PARTNER",
            4,
            "4",
            null,
            "01/14/2019",
            "01/14/2019",
            null,
            null,
            null,
            null,
            null,
            null,
            "Y",
            "Y",
            "Y",
            "Y",
            "Y"
        ],
        [
            "XYZ",
            "ADAPQS",
            41,
            1,
            10,
            "Partner Use Medical Device Last Night",
            "PDEVUSE",
            "DAILY QUESTIONNAIRE FOR BED PARTNER",
            null,
            null,
            null,
            "01/14/2019",
            "01/14/2019",
            null,
            null,
            null,
            null,
            null,
            null,
            "Y",
            "Y",
            "Y",
            "Y",
            "Y"
        ],
        [
            "XYZ",
            "ADAPQS",
            41,
            1,
            10,
            "Snoring Improved By Medical Device",
            "DEVSNORE",
            "DAILY QUESTIONNAIRE FOR BED PARTNER",
            null,
            null,
            null,
            "01/14/2019",
            "01/14/2019",
            null,
            null,
            null,
            null,
            null,
            null,
            "Y",
            "Y",
            "Y",
            "Y",
            "Y"
        ],
        [
            "XYZ",
            "ADAPQS",
            41,
            1,
            10,
            "Rate Snoring Volume Last Night 1 to 10",
            "RATESNVL",
            "DAILY QUESTIONNAIRE FOR BED PARTNER",
            null,
            null,
            null,
            "01/14/2019",
            "01/14/2019",
            null,
            null,
            null,
            null,
            null,
            null,
            "Y",
            "Y",
            "Y",
            "Y",
            "Y"
        ],
        [
            "XYZ",
            "ADAPQS",
            41,
            1,
            10,
            "Sleep Disrupted By Partner Snoring",
            "SNORWAKE",
            "DAILY QUESTIONNAIRE FOR BED PARTNER",
            null,
            null,
            null,
            "01/14/2019",
            "01/14/2019",
            null,
            null,
            null,
            null,
            null,
            null,
            "Y",
            "Y",
            "Y",
            "Y",
            "Y"
        ],
        [
            "XYZ",
            "ADAPQS",
            41,
            1,
            10,
            "Had Difficulty Falling Or Staying Asleep",
            "DFSTSLP",
            "DAILY QUESTIONNAIRE FOR BED PARTNER",
            null,
            null,
            null,
            "01/14/2019",
            "01/14/2019",
            null,
            null,
            null,
            null,
            null,
            null,
            "Y",
            "Y",
            "Y",
            "Y",
            "Y"
        ],
        [
            "XYZ",
            "ADAPQS",
            46,
            6,
            10,
            "Which Product Rated",
            "PRODUCT",
            "IMPRESSION INTERVIEW FOR BED PARTNER",
            "Mute",
            "Mute",
            null,
            "01/13/2019",
            "01/13/2019",
            null,
            null,
            null,
            null,
            null,
            null,
            "Y",
            "Y",
            "Y",
            "Y",
            "Y"
        ],
        [
            "XYZ",
            "ADAPQS",
            46,
            6,
            10,
            "Rate Partner Device Satisfaction 1 to 10",
            "PRTNRSTF",
            "IMPRESSION INTERVIEW FOR BED PARTNER",
            4,
            "4",
            null,
            "01/13/2019",
            "01/13/2019",
            null,
            null,
            null,
            null,
            null,
            null,
            "Y",
            "Y",
            "Y",
            "Y",
            "Y"
        ],
        [
            "XYZ",
            "ADAPQS",
            46,
            6,
            10,
            "Rate Probability To Buy Device 1 to 10",
            "PROBBUY",
            "IMPRESSION INTERVIEW FOR BED PARTNER",
            6,
            "6",
            null,
            "01/13/2019",
            "01/13/2019",
            null,
            null,
            null,
            null,
            null,
            null,
            "Y",
            "Y",
            "Y",
            "Y",
            "Y"
        ],
        [
            "XYZ",
            "ADAPQS",
            46,
            6,
            10,
            "Rate Probability To Recommend 1 to 10",
            "RECOMMND",
            "IMPRESSION INTERVIEW FOR BED PARTNER",
            1,
            "1",
            null,
            "01/13/2019",
            "01/13/2019",
            null,
            null,
            null,
            null,
            null,
            null,
            "Y",
            "Y",
            "Y",
            "Y",
            "Y"
        ],
        [
            "XYZ",
            "ADAPQS",
            41,
            1,
            11,
            "Rate Last Night's Sleep Quality 1 to 10",
            "RATEQSLP",
            "DAILY QUESTIONNAIRE FOR BED PARTNER",
            9,
            "9",
            null,
            "01/15/2019",
            "01/15/2019",
            null,
            null,
            null,
            null,
            null,
            null,
            "Y",
            "Y",
            "Y",
            "Y",
            "Y"
        ],
        [
            "XYZ",
            "ADAPQS",
            41,
            1,
            11,
            "Partner Use Medical Device Last Night",
            "PDEVUSE",
            "DAILY QUESTIONNAIRE FOR BED PARTNER",
            null,
            null,
            null,
            "01/15/2019",
            "01/15/2019",
            null,
            null,
            null,
            null,
            null,
            null,
            "Y",
            "Y",
            "Y",
            "Y",
            "Y"
        ],
        [
            "XYZ",
            "ADAPQS",
            41,
            1,
            11,
            "Snoring Improved By Medical Device",
            "DEVSNORE",
            "DAILY QUESTIONNAIRE FOR BED PARTNER",
            null,
            null,
            null,
            "01/15/2019",
            "01/15/2019",
            null,
            null,
            null,
            null,
            null,
            null,
            "Y",
            "Y",
            "Y",
            "Y",
            "Y"
        ],
        [
            "XYZ",
            "ADAPQS",
            41,
            1,
            11,
            "Rate Snoring Volume Last Night 1 to 10",
            "RATESNVL",
            "DAILY QUESTIONNAIRE FOR BED PARTNER",
            null,
            null,
            null,
            "01/15/2019",
            "01/15/2019",
            null,
            null,
            null,
            null,
            null,
            null,
            "Y",
            "Y",
            "Y",
            "Y",
            "Y"
        ],
        [
            "XYZ",
            "ADAPQS",
            41,
            1,
            11,
            "Sleep Disrupted By Partner Snoring",
            "SNORWAKE",
            "DAILY QUESTIONNAIRE FOR BED PARTNER",
            null,
            null,
            null,
            "01/15/2019",
            "01/15/2019",
            null,
            null,
            null,
            null,
            null,
            null,
            "Y",
            "Y",
            "Y",
            "Y",
            "Y"
        ],
        [
            "XYZ",
            "ADAPQS",
            41,
            1,
            11,
            "Had Difficulty Falling Or Staying Asleep",
            "DFSTSLP",
            "DAILY QUESTIONNAIRE FOR BED PARTNER",
            null,
            null,
            null,
            "01/15/2019",
            "01/15/2019",
            null,
            null,
            null,
            null,
            null,
            null,
            "Y",
            "Y",
            "Y",
            "Y",
            "Y"
        ],
        [
            "XYZ",
            "ADAPQS",
            46,
            6,
            11,
            "Which Product Rated",
            "PRODUCT",
            "IMPRESSION INTERVIEW FOR BED PARTNER",
            "MyTAP V",
            "MyTAP V",
            null,
            "01/27/2019",
            "01/27/2019",
            null,
            null,
            null,
            null,
            null,
            null,
            "Y",
            "Y",
            "Y",
            "Y",
            "Y"
        ],
        [
            "XYZ",
            "ADAPQS",
            46,
            6,
            11,
            "Rate Partner Device Satisfaction 1 to 10",
            "PRTNRSTF",
            "IMPRESSION INTERVIEW FOR BED PARTNER",
            4,
            "4",
            null,
            "01/27/2019",
            "01/27/2019",
            null,
            null,
            null,
            null,
            null,
            null,
            "Y",
            "Y",
            "Y",
            "Y",
            "Y"
        ],
        [
            "XYZ",
            "ADAPQS",
            46,
            6,
            11,
            "Rate Probability To Buy Device 1 to 10",
            "PROBBUY",
            "IMPRESSION INTERVIEW FOR BED PARTNER",
            1,
            "1",
            null,
            "01/27/2019",
            "01/27/2019",
            null,
            null,
            null,
            null,
            null,
            null,
            "Y",
            "Y",
            "Y",
            "Y",
            "Y"
        ],
        [
            "XYZ",
            "ADAPQS",
            46,
            6,
            11,
            "Rate Probability To Recommend 1 to 10",
            "RECOMMND",
            "IMPRESSION INTERVIEW FOR BED PARTNER",
            6,
            "6",
            null,
            "01/27/2019",
            "01/27/2019",
            null,
            null,
            null,
            null,
            null,
            null,
            "Y",
            "Y",
            "Y",
            "Y",
            "Y"
        ],
        [
            "XYZ",
            "ADAPQS",
            41,
            1,
            12,
            "Rate Last Night's Sleep Quality 1 to 10",
            "RATEQSLP",
            "DAILY QUESTIONNAIRE FOR BED PARTNER",
            3,
            "3",
            null,
            "01/16/2019",
            "01/16/2019",
            null,
            null,
            null,
            null,
            null,
            null,
            "Y",
            "Y",
            "Y",
            "Y",
            "Y"
        ],
        [
            "XYZ",
            "ADAPQS",
            41,
            1,
            12,
            "Partner Use Medical Device Last Night",
            "PDEVUSE",
            "DAILY QUESTIONNAIRE FOR BED PARTNER",
            null,
            null,
            null,
            "01/16/2019",
            "01/16/2019",
            null,
            null,
            null,
            null,
            null,
            null,
            "Y",
            "Y",
            "Y",
            "Y",
            "Y"
        ],
        [
            "XYZ",
            "ADAPQS",
            41,
            1,
            12,
            "Snoring Improved By Medical Device",
            "DEVSNORE",
            "DAILY QUESTIONNAIRE FOR BED PARTNER",
            null,
            null,
            null,
            "01/16/2019",
            "01/16/2019",
            null,
            null,
            null,
            null,
            null,
            null,
            "Y",
            "Y",
            "Y",
            "Y",
            "Y"
        ],
        [
            "XYZ",
            "ADAPQS",
            41,
            1,
            12,
            "Rate Snoring Volume Last Night 1 to 10",
            "RATESNVL",
            "DAILY QUESTIONNAIRE FOR BED PARTNER",
            null,
            null,
            null,
            "01/16/2019",
            "01/16/2019",
            null,
            null,
            null,
            null,
            null,
            null,
            "Y",
            "Y",
            "Y",
            "Y",
            "Y"
        ],
        [
            "XYZ",
            "ADAPQS",
            41,
            1,
            12,
            "Sleep Disrupted By Partner Snoring",
            "SNORWAKE",
            "DAILY QUESTIONNAIRE FOR BED PARTNER",
            null,
            null,
            null,
            "01/16/2019",
            "01/16/2019",
            null,
            null,
            null,
            null,
            null,
            null,
            "Y",
            "Y",
            "Y",
            "Y",
            "Y"
        ],
        [
            "XYZ",
            "ADAPQS",
            41,
            1,
            12,
            "Had Difficulty Falling Or Staying Asleep",
            "DFSTSLP",
            "DAILY QUESTIONNAIRE FOR BED PARTNER",
            null,
            null,
            null,
            "01/16/2019",
            "01/16/2019",
            null,
            null,
            null,
            null,
            null,
            null,
            "Y",
            "Y",
            "Y",
            "Y",
            "Y"
        ],
        [
            "XYZ",
            "ADAPQS",
            46,
            6,
            12,
            "Which Product Rated",
            "PRODUCT",
            "IMPRESSION INTERVIEW FOR BED PARTNER",
            "SPT",
            "SPT",
            null,
            "02/10/2019",
            "02/10/2019",
            null,
            null,
            null,
            null,
            null,
            null,
            "Y",
            "Y",
            "Y",
            "Y",
            "Y"
        ],
        [
            "XYZ",
            "ADAPQS",
            46,
            6,
            12,
            "Rate Partner Device Satisfaction 1 to 10",
            "PRTNRSTF",
            "IMPRESSION INTERVIEW FOR BED PARTNER",
            7,
            "7",
            null,
            "02/10/2019",
            "02/10/2019",
            null,
            null,
            null,
            null,
            null,
            null,
            "Y",
            "Y",
            "Y",
            "Y",
            "Y"
        ],
        [
            "XYZ",
            "ADAPQS",
            46,
            6,
            12,
            "Rate Probability To Buy Device 1 to 10",
            "PROBBUY",
            "IMPRESSION INTERVIEW FOR BED PARTNER",
            5,
            "5",
            null,
            "02/10/2019",
            "02/10/2019",
            null,
            null,
            null,
            null,
            null,
            null,
            "Y",
            "Y",
            "Y",
            "Y",
            "Y"
        ],
        [
            "XYZ",
            "ADAPQS",
            46,
            6,
            12,
            "Rate Probability To Recommend 1 to 10",
            "RECOMMND",
            "IMPRESSION INTERVIEW FOR BED PARTNER",
            2,
            "2",
            null,
            "02/10/2019",
            "02/10/2019",
            null,
            null,
            null,
            null,
            null,
            null,
            "Y",
            "Y",
            "Y",
            "Y",
            "Y"
        ],
        [
            "XYZ",
            "ADAPQS",
            41,
            1,
            13,
            "Rate Last Night's Sleep Quality 1 to 10",
            "RATEQSLP",
            "DAILY QUESTIONNAIRE FOR BED PARTNER",
            1,
            "1",
            null,
            "01/17/2019",
            "01/17/2019",
            null,
            null,
            null,
            null,
            null,
            null,
            "Y",
            "Y",
            "Y",
            "Y",
            "Y"
        ],
        [
            "XYZ",
            "ADAPQS",
            41,
            1,
            13,
            "Partner Use Medical Device Last Night",
            "PDEVUSE",
            "DAILY QUESTIONNAIRE FOR BED PARTNER",
            null,
            null,
            null,
            "01/17/2019",
            "01/17/2019",
            null,
            null,
            null,
            null,
            null,
            null,
            "Y",
            "Y",
            "Y",
            "Y",
            "Y"
        ],
        [
            "XYZ",
            "ADAPQS",
            41,
            1,
            13,
            "Snoring Improved By Medical Device",
            "DEVSNORE",
            "DAILY QUESTIONNAIRE FOR BED PARTNER",
            null,
            null,
            null,
            "01/17/2019",
            "01/17/2019",
            null,
            null,
            null,
            null,
            null,
            null,
            "Y",
            "Y",
            "Y",
            "Y",
            "Y"
        ],
        [
            "XYZ",
            "ADAPQS",
            41,
            1,
            13,
            "Rate Snoring Volume Last Night 1 to 10",
            "RATESNVL",
            "DAILY QUESTIONNAIRE FOR BED PARTNER",
            null,
            null,
            null,
            "01/17/2019",
            "01/17/2019",
            null,
            null,
            null,
            null,
            null,
            null,
            "Y",
            "Y",
            "Y",
            "Y",
            "Y"
        ],
        [
            "XYZ",
            "ADAPQS",
            41,
            1,
            13,
            "Sleep Disrupted By Partner Snoring",
            "SNORWAKE",
            "DAILY QUESTIONNAIRE FOR BED PARTNER",
            null,
            null,
            null,
            "01/17/2019",
            "01/17/2019",
            null,
            null,
            null,
            null,
            null,
            null,
            "Y",
            "Y",
            "Y",
            "Y",
            "Y"
        ],
        [
            "XYZ",
            "ADAPQS",
            41,
            1,
            13,
            "Had Difficulty Falling Or Staying Asleep",
            "DFSTSLP",
            "DAILY QUESTIONNAIRE FOR BED PARTNER",
            null,
            null,
            null,
            "01/17/2019",
            "01/17/2019",
            null,
            null,
            null,
            null,
            null,
            null,
            "Y",
            "Y",
            "Y",
            "Y",
            "Y"
        ],
        [
            "XYZ",
            "ADAPQS",
            47,
            7,
            13,
            "Which Product Rated",
            "PRODUCT",
            "IMPRESSION INTERVIEW FOR BED PARTNER",
            "Mute",
            "Mute",
            null,
            "01/16/2019",
            "01/16/2019",
            null,
            null,
            null,
            null,
            null,
            null,
            "Y",
            "Y",
            "Y",
            "Y",
            "Y"
        ],
        [
            "XYZ",
            "ADAPQS",
            47,
            7,
            13,
            "Rate Partner Device Satisfaction 1 to 10",
            "PRTNRSTF",
            "IMPRESSION INTERVIEW FOR BED PARTNER",
            4,
            "4",
            null,
            "01/16/2019",
            "01/16/2019",
            null,
            null,
            null,
            null,
            null,
            null,
            "Y",
            "Y",
            "Y",
            "Y",
            "Y"
        ],
        [
            "XYZ",
            "ADAPQS",
            47,
            7,
            13,
            "Rate Probability To Buy Device 1 to 10",
            "PROBBUY",
            "IMPRESSION INTERVIEW FOR BED PARTNER",
            2,
            "2",
            null,
            "01/16/2019",
            "01/16/2019",
            null,
            null,
            null,
            null,
            null,
            null,
            "Y",
            "Y",
            "Y",
            "Y",
            "Y"
        ],
        [
            "XYZ",
            "ADAPQS",
            47,
            7,
            13,
            "Rate Probability To Recommend 1 to 10",
            "RECOMMND",
            "IMPRESSION INTERVIEW FOR BED PARTNER",
            1,
            "1",
            null,
            "01/16/2019",
            "01/16/2019",
            null,
            null,
            null,
            null,
            null,
            null,
            "Y",
            "Y",
            "Y",
            "Y",
            "Y"
        ],
        [
            "XYZ",
            "ADAPQS",
            41,
            1,
            14,
            "Rate Last Night's Sleep Quality 1 to 10",
            "RATEQSLP",
            "DAILY QUESTIONNAIRE FOR BED PARTNER",
            6,
            "6",
            null,
            "01/18/2019",
            "01/18/2019",
            null,
            null,
            null,
            null,
            null,
            null,
            "Y",
            "Y",
            "Y",
            "Y",
            "Y"
        ],
        [
            "XYZ",
            "ADAPQS",
            41,
            1,
            14,
            "Partner Use Medical Device Last Night",
            "PDEVUSE",
            "DAILY QUESTIONNAIRE FOR BED PARTNER",
            null,
            null,
            null,
            "01/18/2019",
            "01/18/2019",
            null,
            null,
            null,
            null,
            null,
            null,
            "Y",
            "Y",
            "Y",
            "Y",
            "Y"
        ],
        [
            "XYZ",
            "ADAPQS",
            41,
            1,
            14,
            "Snoring Improved By Medical Device",
            "DEVSNORE",
            "DAILY QUESTIONNAIRE FOR BED PARTNER",
            null,
            null,
            null,
            "01/18/2019",
            "01/18/2019",
            null,
            null,
            null,
            null,
            null,
            null,
            "Y",
            "Y",
            "Y",
            "Y",
            "Y"
        ],
        [
            "XYZ",
            "ADAPQS",
            41,
            1,
            14,
            "Rate Snoring Volume Last Night 1 to 10",
            "RATESNVL",
            "DAILY QUESTIONNAIRE FOR BED PARTNER",
            null,
            null,
            null,
            "01/18/2019",
            "01/18/2019",
            null,
            null,
            null,
            null,
            null,
            null,
            "Y",
            "Y",
            "Y",
            "Y",
            "Y"
        ],
        [
            "XYZ",
            "ADAPQS",
            41,
            1,
            14,
            "Sleep Disrupted By Partner Snoring",
            "SNORWAKE",
            "DAILY QUESTIONNAIRE FOR BED PARTNER",
            null,
            null,
            null,
            "01/18/2019",
            "01/18/2019",
            null,
            null,
            null,
            null,
            null,
            null,
            "Y",
            "Y",
            "Y",
            "Y",
            "Y"
        ],
        [
            "XYZ",
            "ADAPQS",
            41,
            1,
            14,
            "Had Difficulty Falling Or Staying Asleep",
            "DFSTSLP",
            "DAILY QUESTIONNAIRE FOR BED PARTNER",
            null,
            null,
            null,
            "01/18/2019",
            "01/18/2019",
            null,
            null,
            null,
            null,
            null,
            null,
            "Y",
            "Y",
            "Y",
            "Y",
            "Y"
        ],
        [
            "XYZ",
            "ADAPQS",
            47,
            7,
            14,
            "Which Product Rated",
            "PRODUCT",
            "IMPRESSION INTERVIEW FOR BED PARTNER",
            "SPT",
            "SPT",
            null,
            "02/13/2019",
            "02/13/2019",
            null,
            null,
            null,
            null,
            null,
            null,
            "Y",
            "Y",
            "Y",
            "Y",
            "Y"
        ],
        [
            "XYZ",
            "ADAPQS",
            47,
            7,
            14,
            "Rate Partner Device Satisfaction 1 to 10",
            "PRTNRSTF",
            "IMPRESSION INTERVIEW FOR BED PARTNER",
            4,
            "4",
            null,
            "02/13/2019",
            "02/13/2019",
            null,
            null,
            null,
            null,
            null,
            null,
            "Y",
            "Y",
            "Y",
            "Y",
            "Y"
        ],
        [
            "XYZ",
            "ADAPQS",
            47,
            7,
            14,
            "Rate Probability To Buy Device 1 to 10",
            "PROBBUY",
            "IMPRESSION INTERVIEW FOR BED PARTNER",
            2,
            "2",
            null,
            "02/13/2019",
            "02/13/2019",
            null,
            null,
            null,
            null,
            null,
            null,
            "Y",
            "Y",
            "Y",
            "Y",
            "Y"
        ],
        [
            "XYZ",
            "ADAPQS",
            47,
            7,
            14,
            "Rate Probability To Recommend 1 to 10",
            "RECOMMND",
            "IMPRESSION INTERVIEW FOR BED PARTNER",
            7,
            "7",
            null,
            "02/13/2019",
            "02/13/2019",
            null,
            null,
            null,
            null,
            null,
            null,
            "Y",
            "Y",
            "Y",
            "Y",
            "Y"
        ],
        [
            "XYZ",
            "ADAPQS",
            41,
            1,
            15,
            "Rate Last Night's Sleep Quality 1 to 10",
            "RATEQSLP",
            "DAILY QUESTIONNAIRE FOR BED PARTNER",
            9,
            "9",
            null,
            "01/19/2019",
            "01/19/2019",
            null,
            null,
            null,
            null,
            null,
            null,
            "Y",
            "Y",
            "Y",
            "Y",
            "Y"
        ],
        [
            "XYZ",
            "ADAPQS",
            41,
            1,
            15,
            "Partner Use Medical Device Last Night",
            "PDEVUSE",
            "DAILY QUESTIONNAIRE FOR BED PARTNER",
            null,
            null,
            null,
            "01/19/2019",
            "01/19/2019",
            null,
            null,
            null,
            null,
            null,
            null,
            "Y",
            "Y",
            "Y",
            "Y",
            "Y"
        ],
        [
            "XYZ",
            "ADAPQS",
            41,
            1,
            15,
            "Snoring Improved By Medical Device",
            "DEVSNORE",
            "DAILY QUESTIONNAIRE FOR BED PARTNER",
            null,
            null,
            null,
            "01/19/2019",
            "01/19/2019",
            null,
            null,
            null,
            null,
            null,
            null,
            "Y",
            "Y",
            "Y",
            "Y",
            "Y"
        ],
        [
            "XYZ",
            "ADAPQS",
            41,
            1,
            15,
            "Rate Snoring Volume Last Night 1 to 10",
            "RATESNVL",
            "DAILY QUESTIONNAIRE FOR BED PARTNER",
            null,
            null,
            null,
            "01/19/2019",
            "01/19/2019",
            null,
            null,
            null,
            null,
            null,
            null,
            "Y",
            "Y",
            "Y",
            "Y",
            "Y"
        ],
        [
            "XYZ",
            "ADAPQS",
            41,
            1,
            15,
            "Sleep Disrupted By Partner Snoring",
            "SNORWAKE",
            "DAILY QUESTIONNAIRE FOR BED PARTNER",
            null,
            null,
            null,
            "01/19/2019",
            "01/19/2019",
            null,
            null,
            null,
            null,
            null,
            null,
            "Y",
            "Y",
            "Y",
            "Y",
            "Y"
        ],
        [
            "XYZ",
            "ADAPQS",
            41,
            1,
            15,
            "Had Difficulty Falling Or Staying Asleep",
            "DFSTSLP",
            "DAILY QUESTIONNAIRE FOR BED PARTNER",
            null,
            null,
            null,
            "01/19/2019",
            "01/19/2019",
            null,
            null,
            null,
            null,
            null,
            null,
            "Y",
            "Y",
            "Y",
            "Y",
            "Y"
        ],
        [
            "XYZ",
            "ADAPQS",
            48,
            8,
            15,
            "Which Product Rated",
            "PRODUCT",
            "IMPRESSION INTERVIEW FOR BED PARTNER",
            "Mute",
            "Mute",
            null,
            "01/16/2019",
            "01/16/2019",
            null,
            null,
            null,
            null,
            null,
            null,
            "Y",
            "Y",
            "Y",
            "Y",
            "Y"
        ],
        [
            "XYZ",
            "ADAPQS",
            48,
            8,
            15,
            "Rate Partner Device Satisfaction 1 to 10",
            "PRTNRSTF",
            "IMPRESSION INTERVIEW FOR BED PARTNER",
            3,
            "3",
            null,
            "01/16/2019",
            "01/16/2019",
            null,
            null,
            null,
            null,
            null,
            null,
            "Y",
            "Y",
            "Y",
            "Y",
            "Y"
        ],
        [
            "XYZ",
            "ADAPQS",
            48,
            8,
            15,
            "Rate Probability To Buy Device 1 to 10",
            "PROBBUY",
            "IMPRESSION INTERVIEW FOR BED PARTNER",
            4,
            "4",
            null,
            "01/16/2019",
            "01/16/2019",
            null,
            null,
            null,
            null,
            null,
            null,
            "Y",
            "Y",
            "Y",
            "Y",
            "Y"
        ],
        [
            "XYZ",
            "ADAPQS",
            48,
            8,
            15,
            "Rate Probability To Recommend 1 to 10",
            "RECOMMND",
            "IMPRESSION INTERVIEW FOR BED PARTNER",
            9,
            "9",
            null,
            "01/16/2019",
            "01/16/2019",
            null,
            null,
            null,
            null,
            null,
            null,
            "Y",
            "Y",
            "Y",
            "Y",
            "Y"
        ],
        [
            "XYZ",
            "ADAPQS",
            41,
            1,
            16,
            "Rate Last Night's Sleep Quality 1 to 10",
            "RATEQSLP",
            "DAILY QUESTIONNAIRE FOR BED PARTNER",
            6,
            "6",
            null,
            "01/20/2019",
            "01/20/2019",
            null,
            null,
            null,
            null,
            null,
            null,
            "Y",
            "Y",
            "Y",
            "Y",
            "Y"
        ],
        [
            "XYZ",
            "ADAPQS",
            41,
            1,
            16,
            "Partner Use Medical Device Last Night",
            "PDEVUSE",
            "DAILY QUESTIONNAIRE FOR BED PARTNER",
            null,
            null,
            null,
            "01/20/2019",
            "01/20/2019",
            null,
            null,
            null,
            null,
            null,
            null,
            "Y",
            "Y",
            "Y",
            "Y",
            "Y"
        ],
        [
            "XYZ",
            "ADAPQS",
            41,
            1,
            16,
            "Snoring Improved By Medical Device",
            "DEVSNORE",
            "DAILY QUESTIONNAIRE FOR BED PARTNER",
            null,
            null,
            null,
            "01/20/2019",
            "01/20/2019",
            null,
            null,
            null,
            null,
            null,
            null,
            "Y",
            "Y",
            "Y",
            "Y",
            "Y"
        ],
        [
            "XYZ",
            "ADAPQS",
            41,
            1,
            16,
            "Rate Snoring Volume Last Night 1 to 10",
            "RATESNVL",
            "DAILY QUESTIONNAIRE FOR BED PARTNER",
            null,
            null,
            null,
            "01/20/2019",
            "01/20/2019",
            null,
            null,
            null,
            null,
            null,
            null,
            "Y",
            "Y",
            "Y",
            "Y",
            "Y"
        ],
        [
            "XYZ",
            "ADAPQS",
            41,
            1,
            16,
            "Sleep Disrupted By Partner Snoring",
            "SNORWAKE",
            "DAILY QUESTIONNAIRE FOR BED PARTNER",
            null,
            null,
            null,
            "01/20/2019",
            "01/20/2019",
            null,
            null,
            null,
            null,
            null,
            null,
            "Y",
            "Y",
            "Y",
            "Y",
            "Y"
        ],
        [
            "XYZ",
            "ADAPQS",
            41,
            1,
            16,
            "Had Difficulty Falling Or Staying Asleep",
            "DFSTSLP",
            "DAILY QUESTIONNAIRE FOR BED PARTNER",
            null,
            null,
            null,
            "01/20/2019",
            "01/20/2019",
            null,
            null,
            null,
            null,
            null,
            null,
            "Y",
            "Y",
            "Y",
            "Y",
            "Y"
        ],
        [
            "XYZ",
            "ADAPQS",
            48,
            8,
            16,
            "Which Product Rated",
            "PRODUCT",
            "IMPRESSION INTERVIEW FOR BED PARTNER",
            "MyTAP V",
            "MyTAP V",
            null,
            "01/30/2019",
            "01/30/2019",
            null,
            null,
            null,
            null,
            null,
            null,
            "Y",
            "Y",
            "Y",
            "Y",
            "Y"
        ],
        [
            "XYZ",
            "ADAPQS",
            48,
            8,
            16,
            "Rate Partner Device Satisfaction 1 to 10",
            "PRTNRSTF",
            "IMPRESSION INTERVIEW FOR BED PARTNER",
            9,
            "9",
            null,
            "01/30/2019",
            "01/30/2019",
            null,
            null,
            null,
            null,
            null,
            null,
            "Y",
            "Y",
            "Y",
            "Y",
            "Y"
        ],
        [
            "XYZ",
            "ADAPQS",
            48,
            8,
            16,
            "Rate Probability To Buy Device 1 to 10",
            "PROBBUY",
            "IMPRESSION INTERVIEW FOR BED PARTNER",
            5,
            "5",
            null,
            "01/30/2019",
            "01/30/2019",
            null,
            null,
            null,
            null,
            null,
            null,
            "Y",
            "Y",
            "Y",
            "Y",
            "Y"
        ],
        [
            "XYZ",
            "ADAPQS",
            48,
            8,
            16,
            "Rate Probability To Recommend 1 to 10",
            "RECOMMND",
            "IMPRESSION INTERVIEW FOR BED PARTNER",
            10,
            "10",
            null,
            "01/30/2019",
            "01/30/2019",
            null,
            null,
            null,
            null,
            null,
            null,
            "Y",
            "Y",
            "Y",
            "Y",
            "Y"
        ],
        [
            "XYZ",
            "ADAPQS",
            41,
            1,
            17,
            "Rate Last Night's Sleep Quality 1 to 10",
            "RATEQSLP",
            "DAILY QUESTIONNAIRE FOR BED PARTNER",
            10,
            "10",
            null,
            "01/21/2019",
            "01/21/2019",
            null,
            null,
            null,
            null,
            null,
            null,
            "Y",
            "Y",
            "Y",
            "Y",
            "Y"
        ],
        [
            "XYZ",
            "ADAPQS",
            41,
            1,
            17,
            "Partner Use Medical Device Last Night",
            "PDEVUSE",
            "DAILY QUESTIONNAIRE FOR BED PARTNER",
            null,
            null,
            null,
            "01/21/2019",
            "01/21/2019",
            null,
            null,
            null,
            null,
            null,
            null,
            "Y",
            "Y",
            "Y",
            "Y",
            "Y"
        ],
        [
            "XYZ",
            "ADAPQS",
            41,
            1,
            17,
            "Snoring Improved By Medical Device",
            "DEVSNORE",
            "DAILY QUESTIONNAIRE FOR BED PARTNER",
            null,
            null,
            null,
            "01/21/2019",
            "01/21/2019",
            null,
            null,
            null,
            null,
            null,
            null,
            "Y",
            "Y",
            "Y",
            "Y",
            "Y"
        ],
        [
            "XYZ",
            "ADAPQS",
            41,
            1,
            17,
            "Rate Snoring Volume Last Night 1 to 10",
            "RATESNVL",
            "DAILY QUESTIONNAIRE FOR BED PARTNER",
            null,
            null,
            null,
            "01/21/2019",
            "01/21/2019",
            null,
            null,
            null,
            null,
            null,
            null,
            "Y",
            "Y",
            "Y",
            "Y",
            "Y"
        ],
        [
            "XYZ",
            "ADAPQS",
            41,
            1,
            17,
            "Sleep Disrupted By Partner Snoring",
            "SNORWAKE",
            "DAILY QUESTIONNAIRE FOR BED PARTNER",
            null,
            null,
            null,
            "01/21/2019",
            "01/21/2019",
            null,
            null,
            null,
            null,
            null,
            null,
            "Y",
            "Y",
            "Y",
            "Y",
            "Y"
        ],
        [
            "XYZ",
            "ADAPQS",
            41,
            1,
            17,
            "Had Difficulty Falling Or Staying Asleep",
            "DFSTSLP",
            "DAILY QUESTIONNAIRE FOR BED PARTNER",
            null,
            null,
            null,
            "01/21/2019",
            "01/21/2019",
            null,
            null,
            null,
            null,
            null,
            null,
            "Y",
            "Y",
            "Y",
            "Y",
            "Y"
        ],
        [
            "XYZ",
            "ADAPQS",
            48,
            8,
            17,
            "Which Product Rated",
            "PRODUCT",
            "IMPRESSION INTERVIEW FOR BED PARTNER",
            "SPT",
            "SPT",
            null,
            "02/13/2019",
            "02/13/2019",
            null,
            null,
            null,
            null,
            null,
            null,
            "Y",
            "Y",
            "Y",
            "Y",
            "Y"
        ],
        [
            "XYZ",
            "ADAPQS",
            48,
            8,
            17,
            "Rate Partner Device Satisfaction 1 to 10",
            "PRTNRSTF",
            "IMPRESSION INTERVIEW FOR BED PARTNER",
            7,
            "7",
            null,
            "02/13/2019",
            "02/13/2019",
            null,
            null,
            null,
            null,
            null,
            null,
            "Y",
            "Y",
            "Y",
            "Y",
            "Y"
        ],
        [
            "XYZ",
            "ADAPQS",
            48,
            8,
            17,
            "Rate Probability To Buy Device 1 to 10",
            "PROBBUY",
            "IMPRESSION INTERVIEW FOR BED PARTNER",
            10,
            "10",
            null,
            "02/13/2019",
            "02/13/2019",
            null,
            null,
            null,
            null,
            null,
            null,
            "Y",
            "Y",
            "Y",
            "Y",
            "Y"
        ],
        [
            "XYZ",
            "ADAPQS",
            48,
            8,
            17,
            "Rate Probability To Recommend 1 to 10",
            "RECOMMND",
            "IMPRESSION INTERVIEW FOR BED PARTNER",
            7,
            "7",
            null,
            "02/13/2019",
            "02/13/2019",
            null,
            null,
            null,
            null,
            null,
            null,
            "Y",
            "Y",
            "Y",
            "Y",
            "Y"
        ],
        [
            "XYZ",
            "ADAPQS",
            41,
            1,
            18,
            "Rate Last Night's Sleep Quality 1 to 10",
            "RATEQSLP",
            "DAILY QUESTIONNAIRE FOR BED PARTNER",
            2,
            "2",
            null,
            "01/22/2019",
            "01/22/2019",
            null,
            null,
            null,
            null,
            null,
            null,
            "Y",
            "Y",
            "Y",
            "Y",
            "Y"
        ],
        [
            "XYZ",
            "ADAPQS",
            41,
            1,
            18,
            "Partner Use Medical Device Last Night",
            "PDEVUSE",
            "DAILY QUESTIONNAIRE FOR BED PARTNER",
            null,
            null,
            null,
            "01/22/2019",
            "01/22/2019",
            null,
            null,
            null,
            null,
            null,
            null,
            "Y",
            "Y",
            "Y",
            "Y",
            "Y"
        ],
        [
            "XYZ",
            "ADAPQS",
            41,
            1,
            18,
            "Snoring Improved By Medical Device",
            "DEVSNORE",
            "DAILY QUESTIONNAIRE FOR BED PARTNER",
            null,
            null,
            null,
            "01/22/2019",
            "01/22/2019",
            null,
            null,
            null,
            null,
            null,
            null,
            "Y",
            "Y",
            "Y",
            "Y",
            "Y"
        ],
        [
            "XYZ",
            "ADAPQS",
            41,
            1,
            18,
            "Rate Snoring Volume Last Night 1 to 10",
            "RATESNVL",
            "DAILY QUESTIONNAIRE FOR BED PARTNER",
            null,
            null,
            null,
            "01/22/2019",
            "01/22/2019",
            null,
            null,
            null,
            null,
            null,
            null,
            "Y",
            "Y",
            "Y",
            "Y",
            "Y"
        ],
        [
            "XYZ",
            "ADAPQS",
            41,
            1,
            18,
            "Sleep Disrupted By Partner Snoring",
            "SNORWAKE",
            "DAILY QUESTIONNAIRE FOR BED PARTNER",
            null,
            null,
            null,
            "01/22/2019",
            "01/22/2019",
            null,
            null,
            null,
            null,
            null,
            null,
            "Y",
            "Y",
            "Y",
            "Y",
            "Y"
        ],
        [
            "XYZ",
            "ADAPQS",
            41,
            1,
            18,
            "Had Difficulty Falling Or Staying Asleep",
            "DFSTSLP",
            "DAILY QUESTIONNAIRE FOR BED PARTNER",
            null,
            null,
            null,
            "01/22/2019",
            "01/22/2019",
            null,
            null,
            null,
            null,
            null,
            null,
            "Y",
            "Y",
            "Y",
            "Y",
            "Y"
        ],
        [
            "XYZ",
            "ADAPQS",
            52,
            12,
            18,
            "Which Product Rated",
            "PRODUCT",
            "IMPRESSION INTERVIEW FOR BED PARTNER",
            "Mute",
            "Mute",
            null,
            "01/20/2019",
            "01/20/2019",
            null,
            null,
            null,
            null,
            null,
            null,
            "Y",
            "Y",
            "Y",
            "Y",
            "Y"
        ],
        [
            "XYZ",
            "ADAPQS",
            52,
            12,
            18,
            "Rate Partner Device Satisfaction 1 to 10",
            "PRTNRSTF",
            "IMPRESSION INTERVIEW FOR BED PARTNER",
            9,
            "9",
            null,
            "01/20/2019",
            "01/20/2019",
            null,
            null,
            null,
            null,
            null,
            null,
            "Y",
            "Y",
            "Y",
            "Y",
            "Y"
        ],
        [
            "XYZ",
            "ADAPQS",
            52,
            12,
            18,
            "Rate Probability To Buy Device 1 to 10",
            "PROBBUY",
            "IMPRESSION INTERVIEW FOR BED PARTNER",
            2,
            "2",
            null,
            "01/20/2019",
            "01/20/2019",
            null,
            null,
            null,
            null,
            null,
            null,
            "Y",
            "Y",
            "Y",
            "Y",
            "Y"
        ],
        [
            "XYZ",
            "ADAPQS",
            52,
            12,
            18,
            "Rate Probability To Recommend 1 to 10",
            "RECOMMND",
            "IMPRESSION INTERVIEW FOR BED PARTNER",
            7,
            "7",
            null,
            "01/20/2019",
            "01/20/2019",
            null,
            null,
            null,
            null,
            null,
            null,
            "Y",
            "Y",
            "Y",
            "Y",
            "Y"
        ],
        [
            "XYZ",
            "ADAPQS",
            41,
            1,
            19,
            "Rate Last Night's Sleep Quality 1 to 10",
            "RATEQSLP",
            "DAILY QUESTIONNAIRE FOR BED PARTNER",
            3,
            "3",
            null,
            "01/23/2019",
            "01/23/2019",
            null,
            null,
            null,
            null,
            null,
            null,
            "Y",
            "Y",
            "Y",
            "Y",
            "Y"
        ],
        [
            "XYZ",
            "ADAPQS",
            41,
            1,
            19,
            "Partner Use Medical Device Last Night",
            "PDEVUSE",
            "DAILY QUESTIONNAIRE FOR BED PARTNER",
            null,
            null,
            null,
            "01/23/2019",
            "01/23/2019",
            null,
            null,
            null,
            null,
            null,
            null,
            "Y",
            "Y",
            "Y",
            "Y",
            "Y"
        ],
        [
            "XYZ",
            "ADAPQS",
            41,
            1,
            19,
            "Snoring Improved By Medical Device",
            "DEVSNORE",
            "DAILY QUESTIONNAIRE FOR BED PARTNER",
            null,
            null,
            null,
            "01/23/2019",
            "01/23/2019",
            null,
            null,
            null,
            null,
            null,
            null,
            "Y",
            "Y",
            "Y",
            "Y",
            "Y"
        ],
        [
            "XYZ",
            "ADAPQS",
            41,
            1,
            19,
            "Rate Snoring Volume Last Night 1 to 10",
            "RATESNVL",
            "DAILY QUESTIONNAIRE FOR BED PARTNER",
            null,
            null,
            null,
            "01/23/2019",
            "01/23/2019",
            null,
            null,
            null,
            null,
            null,
            null,
            "Y",
            "Y",
            "Y",
            "Y",
            "Y"
        ],
        [
            "XYZ",
            "ADAPQS",
            41,
            1,
            19,
            "Sleep Disrupted By Partner Snoring",
            "SNORWAKE",
            "DAILY QUESTIONNAIRE FOR BED PARTNER",
            null,
            null,
            null,
            "01/23/2019",
            "01/23/2019",
            null,
            null,
            null,
            null,
            null,
            null,
            "Y",
            "Y",
            "Y",
            "Y",
            "Y"
        ],
        [
            "XYZ",
            "ADAPQS",
            41,
            1,
            19,
            "Had Difficulty Falling Or Staying Asleep",
            "DFSTSLP",
            "DAILY QUESTIONNAIRE FOR BED PARTNER",
            null,
            null,
            null,
            "01/23/2019",
            "01/23/2019",
            null,
            null,
            null,
            null,
            null,
            null,
            "Y",
            "Y",
            "Y",
            "Y",
            "Y"
        ],
        [
            "XYZ",
            "ADAPQS",
            52,
            12,
            19,
            "Which Product Rated",
            "PRODUCT",
            "IMPRESSION INTERVIEW FOR BED PARTNER",
            "MyTAP V",
            "MyTAP V",
            null,
            "02/03/2019",
            "02/03/2019",
            null,
            null,
            null,
            null,
            null,
            null,
            "Y",
            "Y",
            "Y",
            "Y",
            "Y"
        ],
        [
            "XYZ",
            "ADAPQS",
            52,
            12,
            19,
            "Rate Partner Device Satisfaction 1 to 10",
            "PRTNRSTF",
            "IMPRESSION INTERVIEW FOR BED PARTNER",
            2,
            "2",
            null,
            "02/03/2019",
            "02/03/2019",
            null,
            null,
            null,
            null,
            null,
            null,
            "Y",
            "Y",
            "Y",
            "Y",
            "Y"
        ],
        [
            "XYZ",
            "ADAPQS",
            52,
            12,
            19,
            "Rate Probability To Buy Device 1 to 10",
            "PROBBUY",
            "IMPRESSION INTERVIEW FOR BED PARTNER",
            9,
            "9",
            null,
            "02/03/2019",
            "02/03/2019",
            null,
            null,
            null,
            null,
            null,
            null,
            "Y",
            "Y",
            "Y",
            "Y",
            "Y"
        ],
        [
            "XYZ",
            "ADAPQS",
            52,
            12,
            19,
            "Rate Probability To Recommend 1 to 10",
            "RECOMMND",
            "IMPRESSION INTERVIEW FOR BED PARTNER",
            5,
            "5",
            null,
            "02/03/2019",
            "02/03/2019",
            null,
            null,
            null,
            null,
            null,
            null,
            "Y",
            "Y",
            "Y",
            "Y",
            "Y"
        ],
        [
            "XYZ",
            "ADAPQS",
            41,
            1,
            20,
            "Rate Last Night's Sleep Quality 1 to 10",
            "RATEQSLP",
            "DAILY QUESTIONNAIRE FOR BED PARTNER",
            5,
            "5",
            null,
            "01/24/2019",
            "01/24/2019",
            null,
            null,
            null,
            null,
            null,
            null,
            "Y",
            "Y",
            "Y",
            "Y",
            "Y"
        ],
        [
            "XYZ",
            "ADAPQS",
            41,
            1,
            20,
            "Partner Use Medical Device Last Night",
            "PDEVUSE",
            "DAILY QUESTIONNAIRE FOR BED PARTNER",
            null,
            null,
            null,
            "01/24/2019",
            "01/24/2019",
            null,
            null,
            null,
            null,
            null,
            null,
            "Y",
            "Y",
            "Y",
            "Y",
            "Y"
        ],
        [
            "XYZ",
            "ADAPQS",
            41,
            1,
            20,
            "Snoring Improved By Medical Device",
            "DEVSNORE",
            "DAILY QUESTIONNAIRE FOR BED PARTNER",
            null,
            null,
            null,
            "01/24/2019",
            "01/24/2019",
            null,
            null,
            null,
            null,
            null,
            null,
            "Y",
            "Y",
            "Y",
            "Y",
            "Y"
        ],
        [
            "XYZ",
            "ADAPQS",
            41,
            1,
            20,
            "Rate Snoring Volume Last Night 1 to 10",
            "RATESNVL",
            "DAILY QUESTIONNAIRE FOR BED PARTNER",
            null,
            null,
            null,
            "01/24/2019",
            "01/24/2019",
            null,
            null,
            null,
            null,
            null,
            null,
            "Y",
            "Y",
            "Y",
            "Y",
            "Y"
        ],
        [
            "XYZ",
            "ADAPQS",
            41,
            1,
            20,
            "Sleep Disrupted By Partner Snoring",
            "SNORWAKE",
            "DAILY QUESTIONNAIRE FOR BED PARTNER",
            null,
            null,
            null,
            "01/24/2019",
            "01/24/2019",
            null,
            null,
            null,
            null,
            null,
            null,
            "Y",
            "Y",
            "Y",
            "Y",
            "Y"
        ],
        [
            "XYZ",
            "ADAPQS",
            41,
            1,
            20,
            "Had Difficulty Falling Or Staying Asleep",
            "DFSTSLP",
            "DAILY QUESTIONNAIRE FOR BED PARTNER",
            null,
            null,
            null,
            "01/24/2019",
            "01/24/2019",
            null,
            null,
            null,
            null,
            null,
            null,
            "Y",
            "Y",
            "Y",
            "Y",
            "Y"
        ],
        [
            "XYZ",
            "ADAPQS",
            52,
            12,
            20,
            "Which Product Rated",
            "PRODUCT",
            "IMPRESSION INTERVIEW FOR BED PARTNER",
            "SPT",
            "SPT",
            null,
            "02/17/2019",
            "02/17/2019",
            null,
            null,
            null,
            null,
            null,
            null,
            "Y",
            "Y",
            "Y",
            "Y",
            "Y"
        ],
        [
            "XYZ",
            "ADAPQS",
            52,
            12,
            20,
            "Rate Partner Device Satisfaction 1 to 10",
            "PRTNRSTF",
            "IMPRESSION INTERVIEW FOR BED PARTNER",
            10,
            "10",
            null,
            "02/17/2019",
            "02/17/2019",
            null,
            null,
            null,
            null,
            null,
            null,
            "Y",
            "Y",
            "Y",
            "Y",
            "Y"
        ],
        [
            "XYZ",
            "ADAPQS",
            52,
            12,
            20,
            "Rate Probability To Buy Device 1 to 10",
            "PROBBUY",
            "IMPRESSION INTERVIEW FOR BED PARTNER",
            6,
            "6",
            null,
            "02/17/2019",
            "02/17/2019",
            null,
            null,
            null,
            null,
            null,
            null,
            "Y",
            "Y",
            "Y",
            "Y",
            "Y"
        ],
        [
            "XYZ",
            "ADAPQS",
            52,
            12,
            20,
            "Rate Probability To Recommend 1 to 10",
            "RECOMMND",
            "IMPRESSION INTERVIEW FOR BED PARTNER",
            10,
            "10",
            null,
            "02/17/2019",
            "02/17/2019",
            null,
            null,
            null,
            null,
            null,
            null,
            "Y",
            "Y",
            "Y",
            "Y",
            "Y"
        ],
        [
            "XYZ",
            "ADAPQS",
            41,
            1,
            21,
            "Rate Last Night's Sleep Quality 1 to 10",
            "RATEQSLP",
            "DAILY QUESTIONNAIRE FOR BED PARTNER",
            3,
            "3",
            null,
            "01/25/2019",
            "01/25/2019",
            null,
            null,
            null,
            null,
            null,
            null,
            "Y",
            "Y",
            "Y",
            "Y",
            "Y"
        ],
        [
            "XYZ",
            "ADAPQS",
            41,
            1,
            21,
            "Partner Use Medical Device Last Night",
            "PDEVUSE",
            "DAILY QUESTIONNAIRE FOR BED PARTNER",
            null,
            null,
            null,
            "01/25/2019",
            "01/25/2019",
            null,
            null,
            null,
            null,
            null,
            null,
            "Y",
            "Y",
            "Y",
            "Y",
            "Y"
        ],
        [
            "XYZ",
            "ADAPQS",
            41,
            1,
            21,
            "Snoring Improved By Medical Device",
            "DEVSNORE",
            "DAILY QUESTIONNAIRE FOR BED PARTNER",
            null,
            null,
            null,
            "01/25/2019",
            "01/25/2019",
            null,
            null,
            null,
            null,
            null,
            null,
            "Y",
            "Y",
            "Y",
            "Y",
            "Y"
        ],
        [
            "XYZ",
            "ADAPQS",
            41,
            1,
            21,
            "Rate Snoring Volume Last Night 1 to 10",
            "RATESNVL",
            "DAILY QUESTIONNAIRE FOR BED PARTNER",
            null,
            null,
            null,
            "01/25/2019",
            "01/25/2019",
            null,
            null,
            null,
            null,
            null,
            null,
            "Y",
            "Y",
            "Y",
            "Y",
            "Y"
        ],
        [
            "XYZ",
            "ADAPQS",
            41,
            1,
            21,
            "Sleep Disrupted By Partner Snoring",
            "SNORWAKE",
            "DAILY QUESTIONNAIRE FOR BED PARTNER",
            null,
            null,
            null,
            "01/25/2019",
            "01/25/2019",
            null,
            null,
            null,
            null,
            null,
            null,
            "Y",
            "Y",
            "Y",
            "Y",
            "Y"
        ],
        [
            "XYZ",
            "ADAPQS",
            41,
            1,
            21,
            "Had Difficulty Falling Or Staying Asleep",
            "DFSTSLP",
            "DAILY QUESTIONNAIRE FOR BED PARTNER",
            null,
            null,
            null,
            "01/25/2019",
            "01/25/2019",
            null,
            null,
            null,
            null,
            null,
            null,
            "Y",
            "Y",
            "Y",
            "Y",
            "Y"
        ],
        [
            "XYZ",
            "ADAPQS",
            53,
            13,
            21,
            "Which Product Rated",
            "PRODUCT",
            "IMPRESSION INTERVIEW FOR BED PARTNER",
            "MyTAP V",
            "MyTAP V",
            null,
            "01/26/2019",
            "01/26/2019",
            null,
            null,
            null,
            null,
            null,
            null,
            "Y",
            "Y",
            "Y",
            "Y",
            "Y"
        ],
        [
            "XYZ",
            "ADAPQS",
            53,
            13,
            21,
            "Rate Partner Device Satisfaction 1 to 10",
            "PRTNRSTF",
            "IMPRESSION INTERVIEW FOR BED PARTNER",
            6,
            "6",
            null,
            "01/26/2019",
            "01/26/2019",
            null,
            null,
            null,
            null,
            null,
            null,
            "Y",
            "Y",
            "Y",
            "Y",
            "Y"
        ],
        [
            "XYZ",
            "ADAPQS",
            53,
            13,
            21,
            "Rate Probability To Buy Device 1 to 10",
            "PROBBUY",
            "IMPRESSION INTERVIEW FOR BED PARTNER",
            6,
            "6",
            null,
            "01/26/2019",
            "01/26/2019",
            null,
            null,
            null,
            null,
            null,
            null,
            "Y",
            "Y",
            "Y",
            "Y",
            "Y"
        ],
        [
            "XYZ",
            "ADAPQS",
            53,
            13,
            21,
            "Rate Probability To Recommend 1 to 10",
            "RECOMMND",
            "IMPRESSION INTERVIEW FOR BED PARTNER",
            10,
            "10",
            null,
            "01/26/2019",
            "01/26/2019",
            null,
            null,
            null,
            null,
            null,
            null,
            "Y",
            "Y",
            "Y",
            "Y",
            "Y"
        ],
        [
            "XYZ",
            "ADAPQS",
            41,
            1,
            22,
            "Rate Last Night's Sleep Quality 1 to 10",
            "RATEQSLP",
            "DAILY QUESTIONNAIRE FOR BED PARTNER",
            10,
            "10",
            null,
            "01/26/2019",
            "01/26/2019",
            null,
            null,
            null,
            null,
            null,
            null,
            "Y",
            "Y",
            "Y",
            "Y",
            "Y"
        ],
        [
            "XYZ",
            "ADAPQS",
            41,
            1,
            22,
            "Partner Use Medical Device Last Night",
            "PDEVUSE",
            "DAILY QUESTIONNAIRE FOR BED PARTNER",
            null,
            null,
            null,
            "01/26/2019",
            "01/26/2019",
            null,
            null,
            null,
            null,
            null,
            null,
            "Y",
            "Y",
            "Y",
            "Y",
            "Y"
        ],
        [
            "XYZ",
            "ADAPQS",
            41,
            1,
            22,
            "Snoring Improved By Medical Device",
            "DEVSNORE",
            "DAILY QUESTIONNAIRE FOR BED PARTNER",
            null,
            null,
            null,
            "01/26/2019",
            "01/26/2019",
            null,
            null,
            null,
            null,
            null,
            null,
            "Y",
            "Y",
            "Y",
            "Y",
            "Y"
        ],
        [
            "XYZ",
            "ADAPQS",
            41,
            1,
            22,
            "Rate Snoring Volume Last Night 1 to 10",
            "RATESNVL",
            "DAILY QUESTIONNAIRE FOR BED PARTNER",
            null,
            null,
            null,
            "01/26/2019",
            "01/26/2019",
            null,
            null,
            null,
            null,
            null,
            null,
            "Y",
            "Y",
            "Y",
            "Y",
            "Y"
        ],
        [
            "XYZ",
            "ADAPQS",
            41,
            1,
            22,
            "Sleep Disrupted By Partner Snoring",
            "SNORWAKE",
            "DAILY QUESTIONNAIRE FOR BED PARTNER",
            null,
            null,
            null,
            "01/26/2019",
            "01/26/2019",
            null,
            null,
            null,
            null,
            null,
            null,
            "Y",
            "Y",
            "Y",
            "Y",
            "Y"
        ],
        [
            "XYZ",
            "ADAPQS",
            41,
            1,
            22,
            "Had Difficulty Falling Or Staying Asleep",
            "DFSTSLP",
            "DAILY QUESTIONNAIRE FOR BED PARTNER",
            null,
            null,
            null,
            "01/26/2019",
            "01/26/2019",
            null,
            null,
            null,
            null,
            null,
            null,
            "Y",
            "Y",
            "Y",
            "Y",
            "Y"
        ],
        [
            "XYZ",
            "ADAPQS",
            53,
            13,
            22,
            "Which Product Rated",
            "PRODUCT",
            "IMPRESSION INTERVIEW FOR BED PARTNER",
            "SPT",
            "SPT",
            null,
            "02/09/2019",
            "02/09/2019",
            null,
            null,
            null,
            null,
            null,
            null,
            "Y",
            "Y",
            "Y",
            "Y",
            "Y"
        ],
        [
            "XYZ",
            "ADAPQS",
            53,
            13,
            22,
            "Rate Partner Device Satisfaction 1 to 10",
            "PRTNRSTF",
            "IMPRESSION INTERVIEW FOR BED PARTNER",
            5,
            "5",
            null,
            "02/09/2019",
            "02/09/2019",
            null,
            null,
            null,
            null,
            null,
            null,
            "Y",
            "Y",
            "Y",
            "Y",
            "Y"
        ],
        [
            "XYZ",
            "ADAPQS",
            53,
            13,
            22,
            "Rate Probability To Buy Device 1 to 10",
            "PROBBUY",
            "IMPRESSION INTERVIEW FOR BED PARTNER",
            1,
            "1",
            null,
            "02/09/2019",
            "02/09/2019",
            null,
            null,
            null,
            null,
            null,
            null,
            "Y",
            "Y",
            "Y",
            "Y",
            "Y"
        ],
        [
            "XYZ",
            "ADAPQS",
            53,
            13,
            22,
            "Rate Probability To Recommend 1 to 10",
            "RECOMMND",
            "IMPRESSION INTERVIEW FOR BED PARTNER",
            8,
            "8",
            null,
            "02/09/2019",
            "02/09/2019",
            null,
            null,
            null,
            null,
            null,
            null,
            "Y",
            "Y",
            "Y",
            "Y",
            "Y"
        ],
        [
            "XYZ",
            "ADAPQS",
            41,
            1,
            23,
            "Rate Last Night's Sleep Quality 1 to 10",
            "RATEQSLP",
            "DAILY QUESTIONNAIRE FOR BED PARTNER",
            6,
            "6",
            null,
            "01/27/2019",
            "01/27/2019",
            null,
            null,
            null,
            null,
            null,
            null,
            "Y",
            "Y",
            "Y",
            "Y",
            "Y"
        ],
        [
            "XYZ",
            "ADAPQS",
            41,
            1,
            23,
            "Partner Use Medical Device Last Night",
            "PDEVUSE",
            "DAILY QUESTIONNAIRE FOR BED PARTNER",
            null,
            null,
            null,
            "01/27/2019",
            "01/27/2019",
            null,
            null,
            null,
            null,
            null,
            null,
            "Y",
            "Y",
            "Y",
            "Y",
            "Y"
        ],
        [
            "XYZ",
            "ADAPQS",
            41,
            1,
            23,
            "Snoring Improved By Medical Device",
            "DEVSNORE",
            "DAILY QUESTIONNAIRE FOR BED PARTNER",
            null,
            null,
            null,
            "01/27/2019",
            "01/27/2019",
            null,
            null,
            null,
            null,
            null,
            null,
            "Y",
            "Y",
            "Y",
            "Y",
            "Y"
        ],
        [
            "XYZ",
            "ADAPQS",
            41,
            1,
            23,
            "Rate Snoring Volume Last Night 1 to 10",
            "RATESNVL",
            "DAILY QUESTIONNAIRE FOR BED PARTNER",
            null,
            null,
            null,
            "01/27/2019",
            "01/27/2019",
            null,
            null,
            null,
            null,
            null,
            null,
            "Y",
            "Y",
            "Y",
            "Y",
            "Y"
        ],
        [
            "XYZ",
            "ADAPQS",
            41,
            1,
            23,
            "Sleep Disrupted By Partner Snoring",
            "SNORWAKE",
            "DAILY QUESTIONNAIRE FOR BED PARTNER",
            null,
            null,
            null,
            "01/27/2019",
            "01/27/2019",
            null,
            null,
            null,
            null,
            null,
            null,
            "Y",
            "Y",
            "Y",
            "Y",
            "Y"
        ],
        [
            "XYZ",
            "ADAPQS",
            41,
            1,
            23,
            "Had Difficulty Falling Or Staying Asleep",
            "DFSTSLP",
            "DAILY QUESTIONNAIRE FOR BED PARTNER",
            null,
            null,
            null,
            "01/27/2019",
            "01/27/2019",
            null,
            null,
            null,
            null,
            null,
            null,
            "Y",
            "Y",
            "Y",
            "Y",
            "Y"
        ],
        [
            "XYZ",
            "ADAPQS",
            54,
            14,
            23,
            "Which Product Rated",
            "PRODUCT",
            "IMPRESSION INTERVIEW FOR BED PARTNER",
            "Mute",
            "Mute",
            null,
            "01/17/2019",
            "01/17/2019",
            null,
            null,
            null,
            null,
            null,
            null,
            "Y",
            "Y",
            "Y",
            "Y",
            "Y"
        ],
        [
            "XYZ",
            "ADAPQS",
            54,
            14,
            23,
            "Rate Partner Device Satisfaction 1 to 10",
            "PRTNRSTF",
            "IMPRESSION INTERVIEW FOR BED PARTNER",
            1,
            "1",
            null,
            "01/17/2019",
            "01/17/2019",
            null,
            null,
            null,
            null,
            null,
            null,
            "Y",
            "Y",
            "Y",
            "Y",
            "Y"
        ],
        [
            "XYZ",
            "ADAPQS",
            54,
            14,
            23,
            "Rate Probability To Buy Device 1 to 10",
            "PROBBUY",
            "IMPRESSION INTERVIEW FOR BED PARTNER",
            9,
            "9",
            null,
            "01/17/2019",
            "01/17/2019",
            null,
            null,
            null,
            null,
            null,
            null,
            "Y",
            "Y",
            "Y",
            "Y",
            "Y"
        ],
        [
            "XYZ",
            "ADAPQS",
            54,
            14,
            23,
            "Rate Probability To Recommend 1 to 10",
            "RECOMMND",
            "IMPRESSION INTERVIEW FOR BED PARTNER",
            4,
            "4",
            null,
            "01/17/2019",
            "01/17/2019",
            null,
            null,
            null,
            null,
            null,
            null,
            "Y",
            "Y",
            "Y",
            "Y",
            "Y"
        ],
        [
            "XYZ",
            "ADAPQS",
            41,
            1,
            24,
            "Rate Last Night's Sleep Quality 1 to 10",
            "RATEQSLP",
            "DAILY QUESTIONNAIRE FOR BED PARTNER",
            5,
            "5",
            null,
            "01/28/2019",
            "01/28/2019",
            null,
            null,
            null,
            null,
            null,
            null,
            "Y",
            "Y",
            "Y",
            "Y",
            "Y"
        ],
        [
            "XYZ",
            "ADAPQS",
            41,
            1,
            24,
            "Partner Use Medical Device Last Night",
            "PDEVUSE",
            "DAILY QUESTIONNAIRE FOR BED PARTNER",
            null,
            null,
            null,
            "01/28/2019",
            "01/28/2019",
            null,
            null,
            null,
            null,
            null,
            null,
            "Y",
            "Y",
            "Y",
            "Y",
            "Y"
        ],
        [
            "XYZ",
            "ADAPQS",
            41,
            1,
            24,
            "Snoring Improved By Medical Device",
            "DEVSNORE",
            "DAILY QUESTIONNAIRE FOR BED PARTNER",
            null,
            null,
            null,
            "01/28/2019",
            "01/28/2019",
            null,
            null,
            null,
            null,
            null,
            null,
            "Y",
            "Y",
            "Y",
            "Y",
            "Y"
        ],
        [
            "XYZ",
            "ADAPQS",
            41,
            1,
            24,
            "Rate Snoring Volume Last Night 1 to 10",
            "RATESNVL",
            "DAILY QUESTIONNAIRE FOR BED PARTNER",
            null,
            null,
            null,
            "01/28/2019",
            "01/28/2019",
            null,
            null,
            null,
            null,
            null,
            null,
            "Y",
            "Y",
            "Y",
            "Y",
            "Y"
        ],
        [
            "XYZ",
            "ADAPQS",
            41,
            1,
            24,
            "Sleep Disrupted By Partner Snoring",
            "SNORWAKE",
            "DAILY QUESTIONNAIRE FOR BED PARTNER",
            null,
            null,
            null,
            "01/28/2019",
            "01/28/2019",
            null,
            null,
            null,
            null,
            null,
            null,
            "Y",
            "Y",
            "Y",
            "Y",
            "Y"
        ],
        [
            "XYZ",
            "ADAPQS",
            41,
            1,
            24,
            "Had Difficulty Falling Or Staying Asleep",
            "DFSTSLP",
            "DAILY QUESTIONNAIRE FOR BED PARTNER",
            null,
            null,
            null,
            "01/28/2019",
            "01/28/2019",
            null,
            null,
            null,
            null,
            null,
            null,
            "Y",
            "Y",
            "Y",
            "Y",
            "Y"
        ],
        [
            "XYZ",
            "ADAPQS",
            54,
            14,
            24,
            "Which Product Rated",
            "PRODUCT",
            "IMPRESSION INTERVIEW FOR BED PARTNER",
            "MyTAP V",
            "MyTAP V",
            null,
            "01/31/2019",
            "01/31/2019",
            null,
            null,
            null,
            null,
            null,
            null,
            "Y",
            "Y",
            "Y",
            "Y",
            "Y"
        ],
        [
            "XYZ",
            "ADAPQS",
            54,
            14,
            24,
            "Rate Partner Device Satisfaction 1 to 10",
            "PRTNRSTF",
            "IMPRESSION INTERVIEW FOR BED PARTNER",
            9,
            "9",
            null,
            "01/31/2019",
            "01/31/2019",
            null,
            null,
            null,
            null,
            null,
            null,
            "Y",
            "Y",
            "Y",
            "Y",
            "Y"
        ],
        [
            "XYZ",
            "ADAPQS",
            54,
            14,
            24,
            "Rate Probability To Buy Device 1 to 10",
            "PROBBUY",
            "IMPRESSION INTERVIEW FOR BED PARTNER",
            7,
            "7",
            null,
            "01/31/2019",
            "01/31/2019",
            null,
            null,
            null,
            null,
            null,
            null,
            "Y",
            "Y",
            "Y",
            "Y",
            "Y"
        ],
        [
            "XYZ",
            "ADAPQS",
            54,
            14,
            24,
            "Rate Probability To Recommend 1 to 10",
            "RECOMMND",
            "IMPRESSION INTERVIEW FOR BED PARTNER",
            4,
            "4",
            null,
            "01/31/2019",
            "01/31/2019",
            null,
            null,
            null,
            null,
            null,
            null,
            "Y",
            "Y",
            "Y",
            "Y",
            "Y"
        ],
        [
            "XYZ",
            "ADAPQS",
            41,
            1,
            25,
            "Rate Last Night's Sleep Quality 1 to 10",
            "RATEQSLP",
            "DAILY QUESTIONNAIRE FOR BED PARTNER",
            9,
            "9",
            null,
            "01/29/2019",
            "01/29/2019",
            null,
            null,
            null,
            null,
            null,
            null,
            "Y",
            "Y",
            "Y",
            "Y",
            "Y"
        ],
        [
            "XYZ",
            "ADAPQS",
            41,
            1,
            25,
            "Partner Use Medical Device Last Night",
            "PDEVUSE",
            "DAILY QUESTIONNAIRE FOR BED PARTNER",
            null,
            null,
            null,
            "01/29/2019",
            "01/29/2019",
            null,
            null,
            null,
            null,
            null,
            null,
            "Y",
            "Y",
            "Y",
            "Y",
            "Y"
        ],
        [
            "XYZ",
            "ADAPQS",
            41,
            1,
            25,
            "Snoring Improved By Medical Device",
            "DEVSNORE",
            "DAILY QUESTIONNAIRE FOR BED PARTNER",
            null,
            null,
            null,
            "01/29/2019",
            "01/29/2019",
            null,
            null,
            null,
            null,
            null,
            null,
            "Y",
            "Y",
            "Y",
            "Y",
            "Y"
        ],
        [
            "XYZ",
            "ADAPQS",
            41,
            1,
            25,
            "Rate Snoring Volume Last Night 1 to 10",
            "RATESNVL",
            "DAILY QUESTIONNAIRE FOR BED PARTNER",
            null,
            null,
            null,
            "01/29/2019",
            "01/29/2019",
            null,
            null,
            null,
            null,
            null,
            null,
            "Y",
            "Y",
            "Y",
            "Y",
            "Y"
        ],
        [
            "XYZ",
            "ADAPQS",
            41,
            1,
            25,
            "Sleep Disrupted By Partner Snoring",
            "SNORWAKE",
            "DAILY QUESTIONNAIRE FOR BED PARTNER",
            null,
            null,
            null,
            "01/29/2019",
            "01/29/2019",
            null,
            null,
            null,
            null,
            null,
            null,
            "Y",
            "Y",
            "Y",
            "Y",
            "Y"
        ],
        [
            "XYZ",
            "ADAPQS",
            41,
            1,
            25,
            "Had Difficulty Falling Or Staying Asleep",
            "DFSTSLP",
            "DAILY QUESTIONNAIRE FOR BED PARTNER",
            null,
            null,
            null,
            "01/29/2019",
            "01/29/2019",
            null,
            null,
            null,
            null,
            null,
            null,
            "Y",
            "Y",
            "Y",
            "Y",
            "Y"
        ],
        [
            "XYZ",
            "ADAPQS",
            54,
            14,
            25,
            "Which Product Rated",
            "PRODUCT",
            "IMPRESSION INTERVIEW FOR BED PARTNER",
            "SPT",
            "SPT",
            null,
            "02/14/2019",
            "02/14/2019",
            null,
            null,
            null,
            null,
            null,
            null,
            "Y",
            "Y",
            "Y",
            "Y",
            "Y"
        ],
        [
            "XYZ",
            "ADAPQS",
            54,
            14,
            25,
            "Rate Partner Device Satisfaction 1 to 10",
            "PRTNRSTF",
            "IMPRESSION INTERVIEW FOR BED PARTNER",
            8,
            "8",
            null,
            "02/14/2019",
            "02/14/2019",
            null,
            null,
            null,
            null,
            null,
            null,
            "Y",
            "Y",
            "Y",
            "Y",
            "Y"
        ],
        [
            "XYZ",
            "ADAPQS",
            54,
            14,
            25,
            "Rate Probability To Buy Device 1 to 10",
            "PROBBUY",
            "IMPRESSION INTERVIEW FOR BED PARTNER",
            10,
            "10",
            null,
            "02/14/2019",
            "02/14/2019",
            null,
            null,
            null,
            null,
            null,
            null,
            "Y",
            "Y",
            "Y",
            "Y",
            "Y"
        ],
        [
            "XYZ",
            "ADAPQS",
            54,
            14,
            25,
            "Rate Probability To Recommend 1 to 10",
            "RECOMMND",
            "IMPRESSION INTERVIEW FOR BED PARTNER",
            5,
            "5",
            null,
            "02/14/2019",
            "02/14/2019",
            null,
            null,
            null,
            null,
            null,
            null,
            "Y",
            "Y",
            "Y",
            "Y",
            "Y"
        ],
        [
            "XYZ",
            "ADAPQS",
            41,
            1,
            26,
            "Rate Last Night's Sleep Quality 1 to 10",
            "RATEQSLP",
            "DAILY QUESTIONNAIRE FOR BED PARTNER",
            2,
            "2",
            null,
            "01/30/2019",
            "01/30/2019",
            null,
            null,
            null,
            null,
            null,
            null,
            "Y",
            "Y",
            "Y",
            "Y",
            "Y"
        ],
        [
            "XYZ",
            "ADAPQS",
            41,
            1,
            26,
            "Partner Use Medical Device Last Night",
            "PDEVUSE",
            "DAILY QUESTIONNAIRE FOR BED PARTNER",
            null,
            null,
            null,
            "01/30/2019",
            "01/30/2019",
            null,
            null,
            null,
            null,
            null,
            null,
            "Y",
            "Y",
            "Y",
            "Y",
            "Y"
        ],
        [
            "XYZ",
            "ADAPQS",
            41,
            1,
            26,
            "Snoring Improved By Medical Device",
            "DEVSNORE",
            "DAILY QUESTIONNAIRE FOR BED PARTNER",
            null,
            null,
            null,
            "01/30/2019",
            "01/30/2019",
            null,
            null,
            null,
            null,
            null,
            null,
            "Y",
            "Y",
            "Y",
            "Y",
            "Y"
        ],
        [
            "XYZ",
            "ADAPQS",
            41,
            1,
            26,
            "Rate Snoring Volume Last Night 1 to 10",
            "RATESNVL",
            "DAILY QUESTIONNAIRE FOR BED PARTNER",
            null,
            null,
            null,
            "01/30/2019",
            "01/30/2019",
            null,
            null,
            null,
            null,
            null,
            null,
            "Y",
            "Y",
            "Y",
            "Y",
            "Y"
        ],
        [
            "XYZ",
            "ADAPQS",
            41,
            1,
            26,
            "Sleep Disrupted By Partner Snoring",
            "SNORWAKE",
            "DAILY QUESTIONNAIRE FOR BED PARTNER",
            null,
            null,
            null,
            "01/30/2019",
            "01/30/2019",
            null,
            null,
            null,
            null,
            null,
            null,
            "Y",
            "Y",
            "Y",
            "Y",
            "Y"
        ],
        [
            "XYZ",
            "ADAPQS",
            41,
            1,
            26,
            "Had Difficulty Falling Or Staying Asleep",
            "DFSTSLP",
            "DAILY QUESTIONNAIRE FOR BED PARTNER",
            null,
            null,
            null,
            "01/30/2019",
            "01/30/2019",
            null,
            null,
            null,
            null,
            null,
            null,
            "Y",
            "Y",
            "Y",
            "Y",
            "Y"
        ],
        [
            "XYZ",
            "ADAPQS",
            55,
            15,
            26,
            "Which Product Rated",
            "PRODUCT",
            "IMPRESSION INTERVIEW FOR BED PARTNER",
            "Mute",
            "Mute",
            null,
            "01/17/2019",
            "01/17/2019",
            null,
            null,
            null,
            null,
            null,
            null,
            "Y",
            "Y",
            "Y",
            "Y",
            "Y"
        ],
        [
            "XYZ",
            "ADAPQS",
            55,
            15,
            26,
            "Rate Partner Device Satisfaction 1 to 10",
            "PRTNRSTF",
            "IMPRESSION INTERVIEW FOR BED PARTNER",
            10,
            "10",
            null,
            "01/17/2019",
            "01/17/2019",
            null,
            null,
            null,
            null,
            null,
            null,
            "Y",
            "Y",
            "Y",
            "Y",
            "Y"
        ],
        [
            "XYZ",
            "ADAPQS",
            55,
            15,
            26,
            "Rate Probability To Buy Device 1 to 10",
            "PROBBUY",
            "IMPRESSION INTERVIEW FOR BED PARTNER",
            3,
            "3",
            null,
            "01/17/2019",
            "01/17/2019",
            null,
            null,
            null,
            null,
            null,
            null,
            "Y",
            "Y",
            "Y",
            "Y",
            "Y"
        ],
        [
            "XYZ",
            "ADAPQS",
            55,
            15,
            26,
            "Rate Probability To Recommend 1 to 10",
            "RECOMMND",
            "IMPRESSION INTERVIEW FOR BED PARTNER",
            9,
            "9",
            null,
            "01/17/2019",
            "01/17/2019",
            null,
            null,
            null,
            null,
            null,
            null,
            "Y",
            "Y",
            "Y",
            "Y",
            "Y"
        ],
        [
            "XYZ",
            "ADAPQS",
            41,
            1,
            27,
            "Rate Last Night's Sleep Quality 1 to 10",
            "RATEQSLP",
            "DAILY QUESTIONNAIRE FOR BED PARTNER",
            5,
            "5",
            null,
            "01/31/2019",
            "01/31/2019",
            null,
            null,
            null,
            null,
            null,
            null,
            "Y",
            "Y",
            "Y",
            "Y",
            "Y"
        ],
        [
            "XYZ",
            "ADAPQS",
            41,
            1,
            27,
            "Partner Use Medical Device Last Night",
            "PDEVUSE",
            "DAILY QUESTIONNAIRE FOR BED PARTNER",
            null,
            null,
            null,
            "01/31/2019",
            "01/31/2019",
            null,
            null,
            null,
            null,
            null,
            null,
            "Y",
            "Y",
            "Y",
            "Y",
            "Y"
        ],
        [
            "XYZ",
            "ADAPQS",
            41,
            1,
            27,
            "Snoring Improved By Medical Device",
            "DEVSNORE",
            "DAILY QUESTIONNAIRE FOR BED PARTNER",
            null,
            null,
            null,
            "01/31/2019",
            "01/31/2019",
            null,
            null,
            null,
            null,
            null,
            null,
            "Y",
            "Y",
            "Y",
            "Y",
            "Y"
        ],
        [
            "XYZ",
            "ADAPQS",
            41,
            1,
            27,
            "Rate Snoring Volume Last Night 1 to 10",
            "RATESNVL",
            "DAILY QUESTIONNAIRE FOR BED PARTNER",
            null,
            null,
            null,
            "01/31/2019",
            "01/31/2019",
            null,
            null,
            null,
            null,
            null,
            null,
            "Y",
            "Y",
            "Y",
            "Y",
            "Y"
        ],
        [
            "XYZ",
            "ADAPQS",
            41,
            1,
            27,
            "Sleep Disrupted By Partner Snoring",
            "SNORWAKE",
            "DAILY QUESTIONNAIRE FOR BED PARTNER",
            null,
            null,
            null,
            "01/31/2019",
            "01/31/2019",
            null,
            null,
            null,
            null,
            null,
            null,
            "Y",
            "Y",
            "Y",
            "Y",
            "Y"
        ],
        [
            "XYZ",
            "ADAPQS",
            41,
            1,
            27,
            "Had Difficulty Falling Or Staying Asleep",
            "DFSTSLP",
            "DAILY QUESTIONNAIRE FOR BED PARTNER",
            null,
            null,
            null,
            "01/31/2019",
            "01/31/2019",
            null,
            null,
            null,
            null,
            null,
            null,
            "Y",
            "Y",
            "Y",
            "Y",
            "Y"
        ],
        [
            "XYZ",
            "ADAPQS",
            55,
            15,
            27,
            "Which Product Rated",
            "PRODUCT",
            "IMPRESSION INTERVIEW FOR BED PARTNER",
            "MyTAP V",
            "MyTAP V",
            null,
            "01/31/2019",
            "01/31/2019",
            null,
            null,
            null,
            null,
            null,
            null,
            "Y",
            "Y",
            "Y",
            "Y",
            "Y"
        ],
        [
            "XYZ",
            "ADAPQS",
            55,
            15,
            27,
            "Rate Partner Device Satisfaction 1 to 10",
            "PRTNRSTF",
            "IMPRESSION INTERVIEW FOR BED PARTNER",
            4,
            "4",
            null,
            "01/31/2019",
            "01/31/2019",
            null,
            null,
            null,
            null,
            null,
            null,
            "Y",
            "Y",
            "Y",
            "Y",
            "Y"
        ],
        [
            "XYZ",
            "ADAPQS",
            55,
            15,
            27,
            "Rate Probability To Buy Device 1 to 10",
            "PROBBUY",
            "IMPRESSION INTERVIEW FOR BED PARTNER",
            3,
            "3",
            null,
            "01/31/2019",
            "01/31/2019",
            null,
            null,
            null,
            null,
            null,
            null,
            "Y",
            "Y",
            "Y",
            "Y",
            "Y"
        ],
        [
            "XYZ",
            "ADAPQS",
            55,
            15,
            27,
            "Rate Probability To Recommend 1 to 10",
            "RECOMMND",
            "IMPRESSION INTERVIEW FOR BED PARTNER",
            8,
            "8",
            null,
            "01/31/2019",
            "01/31/2019",
            null,
            null,
            null,
            null,
            null,
            null,
            "Y",
            "Y",
            "Y",
            "Y",
            "Y"
        ]
    ]
}